Version =  1.64
NumCams = 1
Cam     Date       Time        Roll     Pitch       Yaw
---  ----------  --------  --------  --------  --------
101  04/21/2013  08:00:00      0.00     0.00      0.00
-------------------------------------------------------
Extinction Fit: Multi-Day = 2
Extinction Coef Scale     = 1.008800
Extinction Coef Rayleigh  = 2.846974
Extinction Coef Oxygen2   = 2.846974
Extinction Coef Ozone     = 0.761201
Extinction Coef Dust      = 17.575153s
Extinction Coef Water     = 12.857024
-------------------------------------------------------
Number of wavelengths      = 1209
Responsivity normalization = 302172611547.561830
-------------------------------------------------------
Wave(nm)  WeightSum   DayResp     CumResp     SmoothResp  DayExtn     CumExtn
  350.0000       0.552    0.987745    0.987745    0.987745    0.422053    0.422053
  350.6000       0.553    0.989252    0.989252    0.989252    0.423186    0.423186
  351.2000       0.554    0.991004    0.991004    0.991004    0.426129    0.426129
  351.8000       0.554    0.991947    0.991947    0.991947    0.432321    0.432321
  352.4000       0.554    0.991804    0.991804    0.991804    0.436508    0.436508
  353.0000       0.554    0.991622    0.991622    0.991622    0.437178    0.437178
  353.6000       0.555    0.992499    0.992499    0.992499    0.437946    0.437946
  354.2000       0.556    0.994270    0.994270    0.994270    0.440015    0.440015
  354.8000       0.556    0.995773    0.995773    0.995773    0.442683    0.442683
  355.4000       0.557    0.996087    0.996087    0.996087    0.444467    0.444467
  356.0000       0.556    0.995794    0.995794    0.995794    0.444983    0.444983
  356.6000       0.557    0.995997    0.995997    0.995997    0.447808    0.447808
  357.2000       0.557    0.997288    0.997288    0.997288     0.45347     0.45347
  357.8000       0.558    0.999080    0.999080    0.999080    0.456787    0.456787
  358.4000       0.559    1.000575    1.000575    1.000575    0.457365    0.457365
  359.0000       0.560    1.001836    1.001836    1.001836    0.459021    0.459021
  359.6000       0.561    1.003794    1.003794    1.003794    0.461592    0.461592
  360.2000       0.562    1.003500    1.003500    1.003500    0.463242    0.463242
  360.8000       0.564    1.025402    1.025402    1.025402    0.463634    0.463634
  361.4000       0.566    0.943775    0.943775    0.943775    0.464014    0.464014
  362.0000       0.567    1.422155    1.422155    1.422155    0.468076    0.468076
  362.6000       0.567    0.281277    0.281277    0.281277    0.474978    0.474978
  363.2000       0.568    0.125454    0.125454    0.125454    0.478591    0.478591
  363.8000       0.570    0.123205    0.123205    0.123205    0.479646    0.479646
  364.4000       0.572    0.123158    0.123158    0.123158    0.482569    0.482569
  365.0000       0.574    0.123959    0.123959    0.123959    0.485036    0.485036
  365.6000       0.576    0.124310    0.124310    0.124310    0.484818    0.484818
  366.2000       0.579    0.125297    0.125297    0.125297    0.487513    0.487513
  366.8000       0.582    0.124492    0.124492    0.124492    0.494538    0.494538
  367.4000       0.585    0.129606    0.129606    0.129606    0.498387    0.498387
  368.0000       0.589    0.089678    0.089678    0.089678    0.498156    0.498156
  368.6000       0.594    0.067647    0.067647    0.067647    0.499193    0.499193
  369.2000       0.599    0.069252    0.069252    0.069252    0.502123    0.502123
  369.8000       0.605    0.068702    0.068702    0.068702    0.505072    0.505072
  370.4000       0.610    0.073545    0.073545    0.073545    0.506287    0.506287
  371.0000       0.617    0.054420    0.054420    0.054420    0.506102    0.506102
  371.6000       0.624    0.048075    0.048075    0.048075    0.509312    0.509312
  372.2000       0.633    0.049567    0.049567    0.049567    0.515703    0.515703
  372.8000       0.644    0.050348    0.050348    0.050348    0.518624    0.518624
  373.4000       0.657    0.043168    0.043168    0.043168    0.518406    0.518406
  374.0000       0.671    0.039652    0.039652    0.039652    0.519764    0.519764
  374.6000       0.686    0.039314    0.039314    0.039314     0.52275     0.52275
  375.2000       0.702    0.034607    0.034607    0.034607    0.525599    0.525599
  375.8000       0.721    0.034559    0.034559    0.034559    0.526552    0.526552
  376.4000       0.745    0.033073    0.033073    0.033073    0.526463    0.526463
  377.0000       0.773    0.031092    0.031092    0.031092    0.530279    0.530279
  377.6000       0.805    0.029753    0.029753    0.029753    0.536611    0.536611
  378.2000       0.838    0.030203    0.030203    0.030203    0.538628    0.538628
  378.8000       0.872    0.027855    0.027855    0.027855    0.537725    0.537725
  379.4000       0.905    0.027667    0.027667    0.027667    0.538657    0.538657
  380.0000       0.938    0.025556    0.025556    0.025556    0.541303    0.541303
  380.6000       0.969    0.025193    0.025193    0.025193    0.544008    0.544008
  381.2000       0.999    0.023317    0.023317    0.023317     0.54482     0.54482
  381.8000       1.030    0.022690    0.022690    0.022690    0.544918    0.544918
  382.4000       1.064    0.022211    0.022211    0.022211    0.549052    0.549052
  383.0000       1.105    0.021194    0.021194    0.021194    0.555274    0.555274
  383.6000       1.150    0.020972    0.020972    0.020972    0.557784    0.557784
  384.2000       1.191    0.019783    0.019783    0.019783    0.558037    0.558037
  384.8000       1.227    0.019940    0.019940    0.019940    0.559371    0.559371
  385.4000       1.259    0.019457    0.019457    0.019457    0.561833    0.561833
  386.0000       1.289    0.018536    0.018536    0.018536    0.564371    0.564371
  386.6000       1.318    0.017771    0.017771    0.017771     0.56534     0.56534
  387.2000       1.346    0.017162    0.017162    0.017162    0.566279    0.566279
  387.8000       1.373    0.016923    0.016923    0.016923    0.568909    0.568909
  388.4000       1.399    0.016303    0.016303    0.016303    0.572041    0.572041
  389.0000       1.421    0.015496    0.015496    0.015496    0.575217    0.575217
  389.6000       1.441    0.014801    0.014801    0.014801    0.577871    0.577871
  390.2000       1.459    0.014349    0.014349    0.014349    0.579068    0.579068
  390.8000       1.477    0.013621    0.013621    0.013621     0.57983     0.57983
  391.4000       1.495    0.012957    0.012957    0.012957    0.582259    0.582259
  392.0000       1.512    0.012428    0.012428    0.012428    0.584989    0.584989
  392.6000       1.527    0.011946    0.011946    0.011946    0.586412    0.586412
  393.2000       1.538    0.011370    0.011370    0.011370    0.585648    0.585648
  393.8000       1.549    0.011005    0.011005    0.011005    0.586607    0.586607
  394.4000       1.559    0.010535    0.010535    0.010535    0.592474    0.592474
  395.0000       1.568    0.010138    0.010138    0.010138    0.597402    0.597402
  395.6000       1.576    0.009621    0.009621    0.009621     0.59783     0.59783
  396.2000       1.581    0.009257    0.009257    0.009257    0.597688    0.597688
  396.8000       1.586    0.008796    0.008796    0.008796    0.599033    0.599033
  397.4000       1.590    0.008390    0.008390    0.008390    0.601231    0.601231
  398.0000       1.593    0.008026    0.008026    0.008026     0.60353     0.60353
  398.6000       1.596    0.007632    0.007632    0.007632    0.605202    0.605202
  399.2000       1.598    0.007231    0.007231    0.007231    0.605657    0.605657
  399.8000       1.599    0.006940    0.006940    0.006940    0.605528    0.605528
  400.4000       1.599    0.006605    0.006605    0.006605    0.608319    0.608319
  401.0000       1.597    0.006249    0.006249    0.006249    0.613982    0.613982
  401.6000       1.595    0.005980    0.005980    0.005980    0.617333    0.617333
  402.2000       1.594    0.005705    0.005705    0.005705    0.617824    0.617824
  402.8000       1.592    0.005422    0.005422    0.005422    0.618439    0.618439
  403.4000       1.590    0.005204    0.005204    0.005204    0.619973    0.619973
  404.0000       1.588    0.004982    0.004982    0.004982    0.621979    0.621979
  404.6000       1.586    0.004736    0.004736    0.004736    0.623043    0.623043
  405.2000       1.583    0.004511    0.004511    0.004511    0.623564    0.623564
  405.8000       1.579    0.004333    0.004333    0.004333    0.626107    0.626107
  406.4000       1.575    0.004151    0.004151    0.004151    0.629156    0.629156
  407.0000       1.570    0.003984    0.003984    0.003984    0.632403    0.632403
  407.6000       1.566    0.003814    0.003814    0.003814    0.634971    0.634971
  408.2000       1.562    0.003650    0.003650    0.003650    0.636372    0.636372
  408.8000       1.557    0.003525    0.003525    0.003525    0.636182    0.636182
  409.4000       1.551    0.003372    0.003372    0.003372    0.637698    0.637698
  410.0000       1.545    0.003263    0.003263    0.003263    0.640013    0.640013
  410.6000       1.538    0.003151    0.003151    0.003151    0.641822    0.641822
  411.2000       1.532    0.003041    0.003041    0.003041    0.642404    0.642404
  411.8000       1.525    0.002950    0.002950    0.002950    0.643619    0.643619
  412.4000       1.518    0.002850    0.002850    0.002850    0.646117    0.646117
  413.0000       1.511    0.002762    0.002762    0.002762    0.649009    0.649009
  413.6000       1.505    0.002693    0.002693    0.002693    0.651806    0.651806
  414.2000       1.498    0.002616    0.002616    0.002616    0.654013    0.654013
  414.8000       1.491    0.002545    0.002545    0.002545    0.654418    0.654418
  415.4000       1.484    0.002485    0.002485    0.002485    0.654842    0.654842
  416.0000       1.478    0.002427    0.002427    0.002427    0.656799    0.656799
  416.6000       1.471    0.002370    0.002370    0.002370    0.658615    0.658615
  417.2000       1.464    0.002324    0.002324    0.002324    0.660298    0.660298
  417.8000       1.457    0.002265    0.002265    0.002265    0.662501    0.662501
  418.4000       1.451    0.002222    0.002222    0.002222     0.66349     0.66349
  419.0000       1.445    0.002175    0.002175    0.002175    0.662739    0.662739
  419.6000       1.439    0.002137    0.002137    0.002137    0.664145    0.664145
  420.2000       1.434    0.002088    0.002088    0.002088      0.6667      0.6667
  420.8000       1.429    0.002048    0.002048    0.002048    0.669708    0.669708
  421.4000       1.424    0.002005    0.002005    0.002005    0.672265    0.672265
  422.0000       1.418    0.001969    0.001969    0.001969    0.673874    0.673874
  422.6000       1.412    0.001925    0.001925    0.001925    0.673666    0.673666
  423.2000       1.407    0.001888    0.001888    0.001888    0.674943    0.674943
  423.8000       1.402    0.001852    0.001852    0.001852    0.677289    0.677289
  424.4000       1.397    0.001816    0.001816    0.001816    0.679298    0.679298
  425.0000       1.391    0.001779    0.001779    0.001779    0.679669    0.679669
  425.6000       1.385    0.001746    0.001746    0.001746    0.679942    0.679942
  426.2000       1.379    0.001714    0.001714    0.001714    0.682255    0.682255
  426.8000       1.374    0.001679    0.001679    0.001679     0.68514     0.68514
  427.4000       1.369    0.001650    0.001650    0.001650    0.688043    0.688043
  428.0000       1.364    0.001617    0.001617    0.001617    0.690212    0.690212
  428.6000       1.358    0.001589    0.001589    0.001589    0.690352    0.690352
  429.2000       1.352    0.001559    0.001559    0.001559    0.690072    0.690072
  429.8000       1.347    0.001527    0.001527    0.001527    0.691936    0.691936
  430.4000       1.341    0.001501    0.001501    0.001501    0.694051    0.694051
  431.0000       1.337    0.001477    0.001477    0.001477    0.695655    0.695655
  431.6000       1.332    0.001449    0.001449    0.001449    0.697145    0.697145
  432.2000       1.327    0.001426    0.001426    0.001426    0.698012    0.698012
  432.8000       1.321    0.001402    0.001402    0.001402    0.698022    0.698022
  433.4000       1.316    0.001377    0.001377    0.001377    0.699346    0.699346
  434.0000       1.310    0.001353    0.001353    0.001353     0.70124     0.70124
  434.6000       1.304    0.001330    0.001330    0.001330    0.703502    0.703502
  435.2000       1.299    0.001309    0.001309    0.001309    0.705577    0.705577
  435.8000       1.294    0.001289    0.001289    0.001289    0.707461    0.707461
  436.4000       1.289    0.001270    0.001270    0.001270     0.70809     0.70809
  437.0000       1.284    0.001248    0.001248    0.001248    0.709047    0.709047
  437.6000       1.279    0.001230    0.001230    0.001230    0.710316    0.710316
  438.2000       1.273    0.001210    0.001210    0.001210    0.711404    0.711404
  438.8000       1.267    0.001192    0.001192    0.001192     0.71269     0.71269
  439.4000       1.261    0.001173    0.001173    0.001173    0.713993    0.713993
  440.0000       1.256    0.001158    0.001158    0.001158     0.71416     0.71416
  440.6000       1.251    0.001140    0.001140    0.001140    0.714688    0.714688
  441.2000       1.246    0.001124    0.001124    0.001124    0.716202    0.716202
  441.8000       1.241    0.001109    0.001109    0.001109    0.717767    0.717767
  442.4000       1.236    0.001094    0.001094    0.001094    0.719522    0.719522
  443.0000       1.232    0.001081    0.001081    0.001081    0.721248    0.721248
  443.6000       1.228    0.001067    0.001067    0.001067    0.722729    0.722729
  444.2000       1.224    0.001054    0.001054    0.001054     0.72423     0.72423
  444.8000       1.220    0.001040    0.001040    0.001040     0.72435     0.72435
  445.4000       1.215    0.001028    0.001028    0.001028    0.725123    0.725123
  446.0000       1.211    0.001017    0.001017    0.001017    0.727172    0.727172
  446.6000       1.206    0.001006    0.001006    0.001006    0.729078    0.729078
  447.2000       1.201    0.000992    0.000992    0.000992    0.730617    0.730617
  447.8000       1.195    0.000981    0.000981    0.000981     0.73166     0.73166
  448.4000       1.190    0.000969    0.000969    0.000969    0.731056    0.731056
  449.0000       1.185    0.000958    0.000958    0.000958    0.729873    0.729873
  449.6000       1.181    0.000948    0.000948    0.000948    0.731428    0.731428
  450.2000       1.177    0.000937    0.000937    0.000937    0.734045    0.734045
  450.8000       1.173    0.000927    0.000927    0.000927    0.737044    0.737044
  451.4000       1.168    0.000918    0.000918    0.000918    0.739571    0.739571
  452.0000       1.162    0.000908    0.000908    0.000908     0.74149     0.74149
  452.6000       1.158    0.000899    0.000899    0.000899    0.741719    0.741719
  453.2000       1.154    0.000890    0.000890    0.000890    0.742743    0.742743
  453.8000       1.150    0.000882    0.000882    0.000882    0.744426    0.744426
  454.4000       1.145    0.000873    0.000873    0.000873    0.746191    0.746191
  455.0000       1.141    0.000865    0.000865    0.000865    0.747384    0.747384
  455.6000       1.137    0.000856    0.000856    0.000856     0.74774     0.74774
  456.2000       1.133    0.000849    0.000849    0.000849    0.747562    0.747562
  456.8000       1.129    0.000841    0.000841    0.000841     0.74882     0.74882
  457.4000       1.124    0.000831    0.000831    0.000831    0.749992    0.749992
  458.0000       1.119    0.000823    0.000823    0.000823    0.751434    0.751434
  458.6000       1.114    0.000814    0.000814    0.000814     0.75297     0.75297
  459.2000       1.110    0.000808    0.000808    0.000808     0.75442     0.75442
  459.8000       1.107    0.000800    0.000800    0.000800    0.755605    0.755605
  460.4000       1.103    0.000792    0.000792    0.000792    0.756821    0.756821
  461.0000       1.098    0.000784    0.000784    0.000784    0.756844    0.756844
  461.6000       1.093    0.000776    0.000776    0.000776     0.75783     0.75783
  462.2000       1.089    0.000768    0.000768    0.000768    0.759062    0.759062
  462.8000       1.085    0.000763    0.000763    0.000763    0.759612    0.759612
  463.4000       1.082    0.000756    0.000756    0.000756     0.76019     0.76019
  464.0000       1.079    0.000749    0.000749    0.000749    0.760854    0.760854
  464.6000       1.074    0.000742    0.000742    0.000742     0.76074     0.76074
  465.2000       1.070    0.000736    0.000736    0.000736    0.761524    0.761524
  465.8000       1.065    0.000729    0.000729    0.000729    0.762985    0.762985
  466.4000       1.061    0.000723    0.000723    0.000723    0.764562    0.764562
  467.0000       1.057    0.000717    0.000717    0.000717    0.766308    0.766308
  467.6000       1.054    0.000712    0.000712    0.000712    0.768017    0.768017
  468.2000       1.051    0.000706    0.000706    0.000706    0.769482    0.769482
  468.8000       1.047    0.000700    0.000700    0.000700    0.771068    0.771068
  469.4000       1.041    0.000694    0.000694    0.000694    0.771121    0.771121
  470.0000       1.036    0.000687    0.000687    0.000687    0.771277    0.771277
  470.6000       1.032    0.000682    0.000682    0.000682    0.772041    0.772041
  471.2000       1.029    0.000677    0.000677    0.000677    0.772654    0.772654
  471.8000       1.026    0.000673    0.000673    0.000673    0.773191    0.773191
  472.4000       1.022    0.000667    0.000667    0.000667    0.773799    0.773799
  473.0000       1.018    0.000662    0.000662    0.000662    0.774238    0.774238
  473.6000       1.013    0.000656    0.000656    0.000656    0.774251    0.774251
  474.2000       1.009    0.000651    0.000651    0.000651    0.773731    0.773731
  474.8000       1.005    0.000646    0.000646    0.000646    0.773875    0.773875
  475.4000       1.001    0.000642    0.000642    0.000642    0.774517    0.774517
  476.0000       0.998    0.000637    0.000637    0.000637    0.775152    0.775152
  476.6000       0.995    0.000632    0.000632    0.000632    0.775896    0.775896
  477.2000       0.992    0.000629    0.000629    0.000629    0.776702    0.776702
  477.8000       0.988    0.000625    0.000625    0.000625     0.77752     0.77752
  478.4000       0.984    0.000621    0.000621    0.000621    0.778303    0.778303
  479.0000       0.980    0.000616    0.000616    0.000616    0.779003    0.779003
  479.6000       0.976    0.000611    0.000611    0.000611    0.780413    0.780413
  480.2000       0.972    0.000607    0.000607    0.000607    0.781169    0.781169
  480.8000       0.969    0.000603    0.000603    0.000603     0.78201     0.78201
  481.4000       0.966    0.000599    0.000599    0.000599    0.783553    0.783553
  482.0000       0.962    0.000595    0.000595    0.000595    0.785569    0.785569
  482.6000       0.957    0.000591    0.000591    0.000591    0.786317    0.786317
  483.2000       0.953    0.000586    0.000586    0.000586    0.786477    0.786477
  483.8000       0.949    0.000582    0.000582    0.000582    0.788431    0.788431
  484.4000       0.944    0.000578    0.000578    0.000578    0.790935    0.790935
  485.0000       0.941    0.000573    0.000573    0.000573    0.793542    0.793542
  485.6000       0.937    0.000569    0.000569    0.000569    0.795539    0.795539
  486.2000       0.934    0.000567    0.000567    0.000567    0.796053    0.796053
  486.8000       0.931    0.000563    0.000563    0.000563    0.795313    0.795313
  487.4000       0.927    0.000559    0.000559    0.000559    0.795837    0.795837
  488.0000       0.924    0.000556    0.000556    0.000556    0.797048    0.797048
  488.6000       0.921    0.000553    0.000553    0.000553    0.798207    0.798207
  489.2000       0.917    0.000549    0.000549    0.000549     0.79884     0.79884
  489.8000       0.914    0.000546    0.000546    0.000546    0.799406    0.799406
  490.4000       0.911    0.000542    0.000542    0.000542    0.800587    0.800587
  491.0000       0.907    0.000539    0.000539    0.000539    0.801588    0.801588
  491.6000       0.904    0.000536    0.000536    0.000536    0.801947    0.801947
  492.2000       0.900    0.000533    0.000533    0.000533    0.802651    0.802651
  492.8000       0.897    0.000530    0.000530    0.000530    0.803106    0.803106
  493.4000       0.894    0.000527    0.000527    0.000527    0.803651    0.803651
  494.0000       0.891    0.000523    0.000523    0.000523    0.804256    0.804256
  494.6000       0.887    0.000520    0.000520    0.000520    0.804892    0.804892
  495.2000       0.883    0.000517    0.000517    0.000517    0.805532    0.805532
  495.8000       0.878    0.000513    0.000513    0.000513    0.806146    0.806146
  496.4000       0.874    0.000509    0.000509    0.000509    0.807088    0.807088
  497.0000       0.871    0.000506    0.000506    0.000506    0.808371    0.808371
  497.6000       0.868    0.000504    0.000504    0.000504    0.808575    0.808575
  498.2000       0.865    0.000501    0.000501    0.000501     0.80847     0.80847
  498.8000       0.863    0.000498    0.000498    0.000498     0.80934     0.80934
  499.4000       0.860    0.000496    0.000496    0.000496    0.810566    0.810566
  500.0000       0.857    0.000494    0.000494    0.000494    0.810778    0.810778
  500.6000       0.854    0.000490    0.000490    0.000490    0.810631    0.810631
  501.2000       0.850    0.000488    0.000488    0.000488    0.810794    0.810794
  501.8000       0.847    0.000485    0.000485    0.000485    0.810306    0.810306
  502.4000       0.843    0.000482    0.000482    0.000482    0.809028    0.809028
  503.0000       0.840    0.000479    0.000479    0.000479    0.808412    0.808412
  503.6000       0.836    0.000476    0.000476    0.000476    0.808306    0.808306
  504.2000       0.833    0.000474    0.000474    0.000474    0.808396    0.808396
  504.8000       0.831    0.000471    0.000471    0.000471    0.808608    0.808608
  505.4000       0.828    0.000470    0.000470    0.000470     0.80915     0.80915
  506.0000       0.826    0.000467    0.000467    0.000467    0.809765    0.809765
  506.6000       0.822    0.000465    0.000465    0.000465    0.810359    0.810359
  507.2000       0.819    0.000463    0.000463    0.000463    0.810822    0.810822
  507.8000       0.815    0.000460    0.000460    0.000460    0.811365    0.811365
  508.4000       0.812    0.000458    0.000458    0.000458    0.812462    0.812462
  509.0000       0.809    0.000455    0.000455    0.000455    0.813602    0.813602
  509.6000       0.805    0.000453    0.000453    0.000453    0.814162    0.814162
  510.2000       0.802    0.000450    0.000450    0.000450    0.815835    0.815835
  510.8000       0.799    0.000448    0.000448    0.000448    0.817097    0.817097
  511.4000       0.795    0.000446    0.000446    0.000446    0.818588    0.818588
  512.0000       0.792    0.000443    0.000443    0.000443    0.820126    0.820126
  512.6000       0.789    0.000442    0.000442    0.000442    0.821533    0.821533
  513.2000       0.788    0.000440    0.000440    0.000440    0.822628    0.822628
  513.8000       0.786    0.000439    0.000439    0.000439    0.823441    0.823441
  514.4000       0.784    0.000437    0.000437    0.000437    0.822796    0.822796
  515.0000       0.780    0.000435    0.000435    0.000435    0.823104    0.823104
  515.6000       0.776    0.000432    0.000432    0.000432    0.824029    0.824029
  516.2000       0.772    0.000430    0.000430    0.000430    0.824707    0.824707
  516.8000       0.769    0.000428    0.000428    0.000428    0.824773    0.824773
  517.4000       0.767    0.000426    0.000426    0.000426    0.824679    0.824679
  518.0000       0.765    0.000425    0.000425    0.000425    0.825568    0.825568
  518.6000       0.764    0.000424    0.000424    0.000424    0.826786    0.826786
  519.2000       0.761    0.000422    0.000422    0.000422    0.826936    0.826936
  519.8000       0.757    0.000420    0.000420    0.000420    0.826867    0.826867
  520.4000       0.754    0.000418    0.000418    0.000418    0.826975    0.826975
  521.0000       0.751    0.000416    0.000416    0.000416    0.827137    0.827137
  521.6000       0.749    0.000415    0.000415    0.000415    0.827326    0.827326
  522.2000       0.746    0.000412    0.000412    0.000412    0.827519    0.827519
  522.8000       0.743    0.000411    0.000411    0.000411     0.82769     0.82769
  523.4000       0.739    0.000409    0.000409    0.000409    0.827817    0.827817
  524.0000       0.736    0.000407    0.000407    0.000407    0.827873    0.827873
  524.6000       0.734    0.000405    0.000405    0.000405    0.827398    0.827398
  525.2000       0.732    0.000403    0.000403    0.000403    0.826775    0.826775
  525.8000       0.729    0.000402    0.000402    0.000402    0.826769    0.826769
  526.4000       0.727    0.000401    0.000401    0.000401    0.826892    0.826892
  527.0000       0.724    0.000399    0.000399    0.000399    0.826871    0.826871
  527.6000       0.720    0.000397    0.000397    0.000397    0.826854    0.826854
  528.2000       0.717    0.000395    0.000395    0.000395     0.82686     0.82686
  528.8000       0.714    0.000393    0.000393    0.000393    0.826836    0.826836
  529.4000       0.713    0.000392    0.000392    0.000392    0.826868    0.826868
  530.0000       0.711    0.000391    0.000391    0.000391    0.826958    0.826958
  530.6000       0.708    0.000390    0.000390    0.000390    0.826726    0.826726
  531.2000       0.705    0.000388    0.000388    0.000388    0.826518    0.826518
  531.8000       0.702    0.000386    0.000386    0.000386    0.827049    0.827049
  532.4000       0.700    0.000385    0.000385    0.000385    0.827497    0.827497
  533.0000       0.699    0.000384    0.000384    0.000384    0.828046    0.828046
  533.6000       0.696    0.000383    0.000383    0.000383    0.828662    0.828662
  534.2000       0.693    0.000381    0.000381    0.000381    0.829313    0.829313
  534.8000       0.689    0.000379    0.000379    0.000379    0.829965    0.829965
  535.4000       0.687    0.000378    0.000378    0.000378    0.830588    0.830588
  536.0000       0.685    0.000377    0.000377    0.000377    0.831752    0.831752
  536.6000       0.684    0.000376    0.000376    0.000376    0.832831    0.832831
  537.2000       0.681    0.000374    0.000374    0.000374    0.832891    0.832891
  537.8000       0.677    0.000372    0.000372    0.000372    0.832879    0.832879
  538.4000       0.674    0.000371    0.000371    0.000371    0.833894    0.833894
  539.0000       0.672    0.000370    0.000370    0.000370    0.835044    0.835044
  539.6000       0.671    0.000369    0.000369    0.000369    0.835214    0.835214
  540.2000       0.669    0.000368    0.000368    0.000368    0.834841    0.834841
  540.8000       0.666    0.000367    0.000367    0.000367    0.834309    0.834309
  541.4000       0.664    0.000365    0.000365    0.000365    0.833479    0.833479
  542.0000       0.661    0.000364    0.000364    0.000364    0.832907    0.832907
  542.6000       0.658    0.000363    0.000363    0.000363    0.833046    0.833046
  543.2000       0.656    0.000362    0.000362    0.000362    0.833259    0.833259
  543.8000       0.654    0.000361    0.000361    0.000361    0.833541    0.833541
  544.4000       0.653    0.000360    0.000360    0.000360    0.833869    0.833869
  545.0000       0.651    0.000360    0.000360    0.000360    0.834216    0.834216
  545.6000       0.648    0.000358    0.000358    0.000358    0.834559    0.834559
  546.2000       0.646    0.000357    0.000357    0.000357    0.834873    0.834873
  546.8000       0.643    0.000355    0.000355    0.000355    0.835492    0.835492
  547.4000       0.640    0.000355    0.000355    0.000355     0.83593     0.83593
  548.0000       0.638    0.000353    0.000353    0.000353     0.83645     0.83645
  548.6000       0.636    0.000353    0.000353    0.000353    0.837049    0.837049
  549.2000       0.635    0.000352    0.000352    0.000352     0.83759     0.83759
  549.8000       0.633    0.000352    0.000352    0.000352    0.838235    0.838235
  550.4000       0.632    0.000351    0.000351    0.000351    0.838894    0.838894
  551.0000       0.630    0.000351    0.000351    0.000351    0.838985    0.838985
  551.6000       0.628    0.000349    0.000349    0.000349    0.838912    0.838912
  552.2000       0.625    0.000348    0.000348    0.000348     0.83984     0.83984
  552.8000       0.622    0.000347    0.000347    0.000347    0.841036    0.841036
  553.4000       0.621    0.000346    0.000346    0.000346    0.841169    0.841169
  554.0000       0.619    0.000345    0.000345    0.000345    0.841228    0.841228
  554.6000       0.617    0.000345    0.000345    0.000345    0.841246    0.841246
  555.2000       0.615    0.000344    0.000344    0.000344    0.841233    0.841233
  555.8000       0.612    0.000343    0.000343    0.000343    0.841199    0.841199
  556.4000       0.610    0.000342    0.000342    0.000342    0.841155    0.841155
  557.0000       0.608    0.000341    0.000341    0.000341     0.84111     0.84111
  557.6000       0.607    0.000341    0.000341    0.000341    0.841076    0.841076
  558.2000       0.605    0.000339    0.000339    0.000339    0.841063    0.841063
  558.8000       0.602    0.000338    0.000338    0.000338    0.841228    0.841228
  559.4000       0.599    0.000337    0.000337    0.000337    0.840818    0.840818
  560.0000       0.597    0.000337    0.000337    0.000337    0.839552    0.839552
  560.6000       0.596    0.000336    0.000336    0.000336    0.838782    0.838782
  561.2000       0.594    0.000336    0.000336    0.000336    0.838924    0.838924
  561.8000       0.593    0.000335    0.000335    0.000335    0.839297    0.839297
  562.4000       0.591    0.000334    0.000334    0.000334    0.839074    0.839074
  563.0000       0.589    0.000334    0.000334    0.000334    0.837801    0.837801
  563.6000       0.588    0.000333    0.000333    0.000333    0.836983    0.836983
  564.2000       0.586    0.000333    0.000333    0.000333    0.837319    0.837319
  564.8000       0.584    0.000332    0.000332    0.000332    0.836799    0.836799
  565.4000       0.583    0.000331    0.000331    0.000331    0.836061    0.836061
  566.0000       0.581    0.000331    0.000331    0.000331    0.835095    0.835095
  566.6000       0.579    0.000330    0.000330    0.000330    0.834006    0.834006
  567.2000       0.578    0.000329    0.000329    0.000329    0.832899    0.832899
  567.8000       0.576    0.000329    0.000329    0.000329    0.831775    0.831775
  568.4000       0.574    0.000328    0.000328    0.000328    0.829721    0.829721
  569.0000       0.573    0.000328    0.000328    0.000328    0.828655    0.828655
  569.6000       0.571    0.000327    0.000327    0.000327    0.828069    0.828069
  570.2000       0.569    0.000327    0.000327    0.000327    0.827721    0.827721
  570.8000       0.568    0.000326    0.000326    0.000326    0.827738    0.827738
  571.4000       0.566    0.000325    0.000325    0.000325    0.828456    0.828456
  572.0000       0.564    0.000325    0.000325    0.000325    0.828907    0.828907
  572.6000       0.562    0.000324    0.000324    0.000324    0.828747    0.828747
  573.2000       0.561    0.000324    0.000324    0.000324      0.8285      0.8285
  573.8000       0.559    0.000323    0.000323    0.000323    0.828186    0.828186
  574.4000       0.557    0.000323    0.000323    0.000323    0.827837    0.827837
  575.0000       0.556    0.000322    0.000322    0.000322    0.827484    0.827484
  575.6000       0.554    0.000322    0.000322    0.000322     0.82716     0.82716
  576.2000       0.552    0.000321    0.000321    0.000321    0.826896    0.826896
  576.8000       0.551    0.000321    0.000321    0.000321    0.826615    0.826615
  577.4000       0.549    0.000320    0.000320    0.000320    0.826868    0.826868
  578.0000       0.548    0.000320    0.000320    0.000320    0.827135    0.827135
  578.6000       0.546    0.000319    0.000319    0.000319    0.828351    0.828351
  579.2000       0.543    0.000318    0.000318    0.000318    0.830405    0.830405
  579.8000       0.541    0.000317    0.000317    0.000317    0.830752    0.830752
  580.4000       0.538    0.000316    0.000316    0.000316    0.830989    0.830989
  581.0000       0.537    0.000316    0.000316    0.000316    0.833878    0.833878
  581.6000       0.537    0.000316    0.000316    0.000316    0.837599    0.837599
  582.2000       0.536    0.000316    0.000316    0.000316     0.84148     0.84148
  582.8000       0.534    0.000316    0.000316    0.000316    0.844746    0.844746
  583.4000       0.533    0.000315    0.000315    0.000315    0.846192    0.846192
  584.0000       0.530    0.000314    0.000314    0.000314    0.846348    0.846348
  584.6000       0.527    0.000314    0.000314    0.000314    0.847647    0.847647
  585.2000       0.525    0.000312    0.000312    0.000312    0.848624    0.848624
  585.8000       0.523    0.000312    0.000312    0.000312    0.849071    0.849071
  586.4000       0.521    0.000311    0.000311    0.000311    0.849609    0.849609
  587.0000       0.520    0.000311    0.000311    0.000311     0.84805     0.84805
  587.6000       0.518    0.000310    0.000310    0.000310    0.842471    0.842471
  588.2000       0.516    0.000310    0.000310    0.000310    0.836407    0.836407
  588.8000       0.515    0.000309    0.000309    0.000309    0.832529    0.832529
  589.4000       0.514    0.000309    0.000309    0.000309    0.829492    0.829492
  590.0000       0.514    0.000310    0.000310    0.000310    0.827171    0.827171
  590.6000       0.512    0.000309    0.000309    0.000309       0.827       0.827
  591.2000       0.511    0.000309    0.000309    0.000309    0.827842    0.827842
  591.8000       0.509    0.000308    0.000308    0.000308     0.82753     0.82753
  592.4000       0.507    0.000308    0.000308    0.000308    0.826795    0.826795
  593.0000       0.505    0.000307    0.000307    0.000307    0.826997    0.826997
  593.6000       0.504    0.000307    0.000307    0.000307    0.828627    0.828627
  594.2000       0.502    0.000307    0.000307    0.000307    0.830662    0.830662
  594.8000       0.500    0.000306    0.000306    0.000306    0.830361    0.830361
  595.4000       0.499    0.000306    0.000306    0.000306      0.8296      0.8296
  596.0000       0.497    0.000305    0.000305    0.000305    0.833124    0.833124
  596.6000       0.495    0.000304    0.000304    0.000304    0.838087    0.838087
  597.2000       0.494    0.000304    0.000304    0.000304    0.839857    0.839857
  597.8000       0.492    0.000303    0.000303    0.000303    0.840151    0.840151
  598.4000       0.490    0.000303    0.000303    0.000303    0.841165    0.841165
  599.0000       0.489    0.000303    0.000303    0.000303    0.843015    0.843015
  599.6000       0.487    0.000302    0.000302    0.000302    0.844826    0.844826
  600.2000       0.485    0.000301    0.000301    0.000301    0.845192    0.845192
  600.8000       0.484    0.000301    0.000301    0.000301    0.845905    0.845905
  601.4000       0.482    0.000301    0.000301    0.000301     0.84768     0.84768
  602.0000       0.480    0.000300    0.000300    0.000300    0.849919    0.849919
  602.6000       0.478    0.000300    0.000300    0.000300    0.852116    0.852116
  603.2000       0.477    0.000299    0.000299    0.000299    0.853971    0.853971
  603.8000       0.475    0.000299    0.000299    0.000299    0.854355    0.854355
  604.4000       0.474    0.000298    0.000298    0.000298    0.854326    0.854326
  605.0000       0.472    0.000298    0.000298    0.000298     0.85504     0.85504
  605.6000       0.470    0.000297    0.000297    0.000297    0.856208    0.856208
  606.2000       0.468    0.000297    0.000297    0.000297    0.857301    0.857301
  606.8000       0.467    0.000297    0.000297    0.000297     0.85791     0.85791
  607.4000       0.466    0.000297    0.000297    0.000297     0.85846     0.85846
  608.0000       0.466    0.000297    0.000297    0.000297    0.859143    0.859143
  608.6000       0.464    0.000297    0.000297    0.000297    0.859298    0.859298
  609.2000       0.462    0.000296    0.000296    0.000296    0.859712    0.859712
  609.8000       0.461    0.000296    0.000296    0.000296    0.860971    0.860971
  610.4000       0.459    0.000295    0.000295    0.000295    0.862154    0.862154
  611.0000       0.457    0.000294    0.000294    0.000294    0.863474    0.863474
  611.6000       0.456    0.000294    0.000294    0.000294    0.864769    0.864769
  612.2000       0.455    0.000295    0.000295    0.000295    0.865874    0.865874
  612.8000       0.454    0.000294    0.000294    0.000294    0.866896    0.866896
  613.4000       0.453    0.000294    0.000294    0.000294    0.866698    0.866698
  614.0000       0.451    0.000294    0.000294    0.000294    0.866406    0.866406
  614.6000       0.449    0.000293    0.000293    0.000293     0.86717     0.86717
  615.2000       0.448    0.000293    0.000293    0.000293    0.868466    0.868466
  615.8000       0.446    0.000292    0.000292    0.000292    0.869467    0.869467
  616.4000       0.444    0.000292    0.000292    0.000292    0.869557    0.869557
  617.0000       0.443    0.000291    0.000291    0.000291    0.869499    0.869499
  617.6000       0.441    0.000291    0.000291    0.000291    0.870001    0.870001
  618.2000       0.439    0.000290    0.000290    0.000290    0.870908    0.870908
  618.8000       0.438    0.000290    0.000290    0.000290    0.871547    0.871547
  619.4000       0.436    0.000289    0.000289    0.000289    0.870953    0.870953
  620.0000       0.434    0.000289    0.000289    0.000289    0.870412    0.870412
  620.6000       0.432    0.000288    0.000288    0.000288    0.870726    0.870726
  621.2000       0.431    0.000288    0.000288    0.000288     0.87114     0.87114
  621.8000       0.430    0.000288    0.000288    0.000288    0.871647    0.871647
  622.4000       0.430    0.000288    0.000288    0.000288    0.872191    0.872191
  623.0000       0.428    0.000288    0.000288    0.000288    0.872715    0.872715
  623.6000       0.427    0.000287    0.000287    0.000287    0.873163    0.873163
  624.2000       0.425    0.000287    0.000287    0.000287    0.873478    0.873478
  624.8000       0.423    0.000286    0.000286    0.000286    0.873445    0.873445
  625.4000       0.421    0.000286    0.000286    0.000286    0.873503    0.873503
  626.0000       0.420    0.000285    0.000285    0.000285    0.875025    0.875025
  626.6000       0.419    0.000286    0.000286    0.000286    0.869184    0.869184
  627.2000       0.418    0.000286    0.000286    0.000286     0.85306     0.85306
  627.8000       0.417    0.000286    0.000286    0.000286    0.842506    0.842506
  628.4000       0.416    0.000285    0.000285    0.000285     0.84177     0.84177
  629.0000       0.414    0.000285    0.000285    0.000285    0.839068    0.839068
  629.6000       0.412    0.000284    0.000284    0.000284    0.837534    0.837534
  630.2000       0.410    0.000283    0.000283    0.000283    0.847672    0.847672
  630.8000       0.409    0.000283    0.000283    0.000283    0.858853    0.858853
  631.4000       0.408    0.000283    0.000283    0.000283    0.859851    0.859851
  632.0000       0.407    0.000283    0.000283    0.000283    0.861986    0.861986
  632.6000       0.406    0.000283    0.000283    0.000283    0.870959    0.870959
  633.2000       0.404    0.000283    0.000283    0.000283    0.876369    0.876369
  633.8000       0.403    0.000282    0.000282    0.000282    0.876476    0.876476
  634.4000       0.401    0.000281    0.000281    0.000281    0.878135    0.878135
  635.0000       0.399    0.000281    0.000281    0.000281    0.880594    0.880594
  635.6000       0.397    0.000281    0.000281    0.000281    0.880657    0.880657
  636.2000       0.396    0.000280    0.000280    0.000280     0.88198     0.88198
  636.8000       0.396    0.000281    0.000281    0.000281     0.88446     0.88446
  637.4000       0.395    0.000281    0.000281    0.000281    0.887475    0.887475
  638.0000       0.394    0.000282    0.000282    0.000282    0.890095    0.890095
  638.6000       0.393    0.000281    0.000281    0.000281    0.891645    0.891645
  639.2000       0.392    0.000281    0.000281    0.000281    0.890851    0.890851
  639.8000       0.390    0.000281    0.000281    0.000281    0.891305    0.891305
  640.4000       0.389    0.000280    0.000280    0.000280    0.892923    0.892923
  641.0000       0.387    0.000280    0.000280    0.000280     0.89423     0.89423
  641.6000       0.385    0.000279    0.000279    0.000279    0.895015    0.895015
  642.2000       0.384    0.000279    0.000279    0.000279    0.895525    0.895525
  642.8000       0.383    0.000279    0.000279    0.000279     0.89633     0.89633
  643.4000       0.382    0.000279    0.000279    0.000279    0.897538    0.897538
  644.0000       0.381    0.000280    0.000280    0.000280    0.898651    0.898651
  644.6000       0.381    0.000279    0.000279    0.000279     0.89798     0.89798
  645.2000       0.380    0.000280    0.000280    0.000280     0.89417     0.89417
  645.8000       0.378    0.000280    0.000280    0.000280    0.890254    0.890254
  646.4000       0.377    0.000279    0.000279    0.000279     0.88857     0.88857
  647.0000       0.375    0.000279    0.000279    0.000279    0.886908    0.886908
  647.6000       0.373    0.000278    0.000278    0.000278    0.884445    0.884445
  648.2000       0.371    0.000277    0.000277    0.000277    0.882955    0.882955
  648.8000       0.370    0.000277    0.000277    0.000277    0.883406    0.883406
  649.4000       0.370    0.000279    0.000279    0.000279    0.885837    0.885837
  650.0000       0.370    0.000280    0.000280    0.000280    0.888921    0.888921
  650.6000       0.370    0.000280    0.000280    0.000280    0.890883    0.890883
  651.2000       0.368    0.000279    0.000279    0.000279    0.890273    0.890273
  651.8000       0.366    0.000278    0.000278    0.000278    0.887613    0.887613
  652.4000       0.364    0.000278    0.000278    0.000278    0.886703    0.886703
  653.0000       0.362    0.000277    0.000277    0.000277     0.88926     0.88926
  653.6000       0.361    0.000277    0.000277    0.000277    0.894359    0.894359
  654.2000       0.361    0.000279    0.000279    0.000279    0.898759    0.898759
  654.8000       0.361    0.000279    0.000279    0.000279    0.899001    0.899001
  655.4000       0.361    0.000279    0.000279    0.000279    0.896329    0.896329
  656.0000       0.359    0.000279    0.000279    0.000279    0.894011    0.894011
  656.6000       0.357    0.000278    0.000278    0.000278     0.89675     0.89675
  657.2000       0.355    0.000278    0.000278    0.000278    0.903822    0.903822
  657.8000       0.353    0.000277    0.000277    0.000277    0.907435    0.907435
  658.4000       0.352    0.000278    0.000278    0.000278     0.90708     0.90708
  659.0000       0.352    0.000278    0.000278    0.000278    0.907488    0.907488
  659.6000       0.352    0.000279    0.000279    0.000279    0.909127    0.909127
  660.2000       0.352    0.000279    0.000279    0.000279    0.910888    0.910888
  660.8000       0.350    0.000279    0.000279    0.000279    0.912494    0.912494
  661.4000       0.348    0.000278    0.000278    0.000278    0.913741    0.913741
  662.0000       0.347    0.000279    0.000279    0.000279     0.91427     0.91427
  662.6000       0.347    0.000280    0.000280    0.000280     0.91475     0.91475
  663.2000       0.347    0.000281    0.000281    0.000281     0.91556     0.91556
  663.8000       0.346    0.000281    0.000281    0.000281     0.91632     0.91632
  664.4000       0.344    0.000280    0.000280    0.000280    0.917172    0.917172
  665.0000       0.342    0.000279    0.000279    0.000279    0.918026    0.918026
  665.6000       0.340    0.000279    0.000279    0.000279     0.91879     0.91879
  666.2000       0.339    0.000278    0.000278    0.000278    0.919676    0.919676
  666.8000       0.338    0.000279    0.000279    0.000279    0.920125    0.920125
  667.4000       0.338    0.000280    0.000280    0.000280    0.920421    0.920421
  668.0000       0.338    0.000281    0.000281    0.000281    0.921069    0.921069
  668.6000       0.337    0.000281    0.000281    0.000281    0.921838    0.921838
  669.2000       0.336    0.000281    0.000281    0.000281    0.922227    0.922227
  669.8000       0.333    0.000280    0.000280    0.000280    0.922033    0.922033
  670.4000       0.331    0.000279    0.000279    0.000279    0.922484    0.922484
  671.0000       0.330    0.000279    0.000279    0.000279    0.923862    0.923862
  671.6000       0.329    0.000279    0.000279    0.000279    0.924151    0.924151
  672.2000       0.330    0.000280    0.000280    0.000280    0.923907    0.923907
  672.8000       0.329    0.000281    0.000281    0.000281    0.924616    0.924616
  673.4000       0.328    0.000281    0.000281    0.000281    0.925299    0.925299
  674.0000       0.326    0.000281    0.000281    0.000281    0.926112    0.926112
  674.6000       0.325    0.000280    0.000280    0.000280     0.92698     0.92698
  675.2000       0.325    0.000282    0.000282    0.000282    0.927827    0.927827
  675.8000       0.325    0.000283    0.000283    0.000283    0.928577    0.928577
  676.4000       0.324    0.000283    0.000283    0.000283    0.929156    0.929156
  677.0000       0.322    0.000283    0.000283    0.000283    0.929528    0.929528
  677.6000       0.321    0.000282    0.000282    0.000282     0.92847     0.92847
  678.2000       0.320    0.000283    0.000283    0.000283      0.9284      0.9284
  678.8000       0.320    0.000284    0.000284    0.000284    0.929353    0.929353
  679.4000       0.320    0.000285    0.000285    0.000285    0.930136    0.930136
  680.0000       0.319    0.000285    0.000285    0.000285    0.930322    0.930322
  680.6000       0.317    0.000284    0.000284    0.000284    0.930158    0.930158
  681.2000       0.316    0.000284    0.000284    0.000284    0.930777    0.930777
  681.8000       0.316    0.000285    0.000285    0.000285    0.930974    0.930974
  682.4000       0.316    0.000286    0.000286    0.000286    0.927886    0.927886
  683.0000       0.315    0.000287    0.000287    0.000287     0.92946     0.92946
  683.6000       0.313    0.000286    0.000286    0.000286    0.941886    0.941886
  684.2000       0.311    0.000286    0.000286    0.000286    0.929885    0.929885
  684.8000       0.311    0.000286    0.000286    0.000286    0.902467    0.902467
  685.4000       0.311    0.000287    0.000287    0.000287     0.86681     0.86681
  686.0000       0.311    0.000288    0.000288    0.000288    0.831792    0.831792
  686.6000       0.309    0.000288    0.000288    0.000288    0.795744    0.795744
  687.2000       0.307    0.000287    0.000287    0.000287    0.770037    0.770037
  687.8000       0.306    0.000287    0.000287    0.000287    0.732028    0.732028
  688.4000       0.307    0.000289    0.000289    0.000289    0.709857    0.709857
  689.0000       0.307    0.000290    0.000290    0.000290    0.741598    0.741598
  689.6000       0.306    0.000290    0.000290    0.000290    0.786269    0.786269
  690.2000       0.304    0.000290    0.000290    0.000290    0.808594    0.808594
  690.8000       0.302    0.000289    0.000289    0.000289    0.823279    0.823279
  691.4000       0.302    0.000291    0.000291    0.000291    0.840636    0.840636
  692.0000       0.302    0.000292    0.000292    0.000292     0.85883     0.85883
  692.6000       0.302    0.000292    0.000292    0.000292    0.871674    0.871674
  693.2000       0.300    0.000292    0.000292    0.000292    0.873029    0.873029
  693.8000       0.298    0.000291    0.000291    0.000291    0.869779    0.869779
  694.4000       0.297    0.000292    0.000292    0.000292    0.870257    0.870257
  695.0000       0.298    0.000293    0.000293    0.000293    0.874371    0.874371
  695.6000       0.298    0.000294    0.000294    0.000294    0.882006    0.882006
  696.2000       0.296    0.000294    0.000294    0.000294    0.894954    0.894954
  696.8000       0.294    0.000294    0.000294    0.000294    0.909377    0.909377
  697.4000       0.293    0.000293    0.000293    0.000293    0.917284    0.917284
  698.0000       0.293    0.000295    0.000295    0.000295    0.917151    0.917151
  698.6000       0.293    0.000296    0.000296    0.000296    0.911054    0.911054
  699.2000       0.292    0.000297    0.000297    0.000297    0.902909    0.902909
  699.8000       0.290    0.000296    0.000296    0.000296    0.897121    0.897121
  700.4000       0.289    0.000295    0.000295    0.000295    0.897978    0.897978
  701.0000       0.288    0.000296    0.000296    0.000296    0.904114    0.904114
  701.6000       0.288    0.000298    0.000298    0.000298    0.908148    0.908148
  702.2000       0.288    0.000299    0.000299    0.000299    0.908997    0.908997
  702.8000       0.288    0.000300    0.000300    0.000300    0.909743    0.909743
  703.4000       0.287    0.000300    0.000300    0.000300    0.912295    0.912295
  704.0000       0.286    0.000300    0.000300    0.000300     0.91473     0.91473
  704.6000       0.285    0.000300    0.000300    0.000300    0.917524    0.917524
  705.2000       0.284    0.000301    0.000301    0.000301    0.920183    0.920183
  705.8000       0.283    0.000301    0.000301    0.000301    0.923049    0.923049
  706.4000       0.283    0.000302    0.000302    0.000302    0.924927    0.924927
  707.0000       0.282    0.000302    0.000302    0.000302      0.9266      0.9266
  707.6000       0.281    0.000302    0.000302    0.000302    0.929288    0.929288
  708.2000       0.280    0.000303    0.000303    0.000303    0.931212    0.931212
  708.8000       0.279    0.000303    0.000303    0.000303    0.933176    0.933176
  709.4000       0.280    0.000305    0.000305    0.000305    0.934799    0.934799
  710.0000       0.280    0.000307    0.000307    0.000307    0.935811    0.935811
  710.6000       0.279    0.000307    0.000307    0.000307    0.935468    0.935468
  711.2000       0.277    0.000306    0.000306    0.000306    0.935911    0.935911
  711.8000       0.275    0.000305    0.000305    0.000305    0.937295    0.937295
  712.4000       0.274    0.000306    0.000306    0.000306    0.937938    0.937938
  713.0000       0.275    0.000308    0.000308    0.000308    0.937335    0.937335
  713.6000       0.275    0.000309    0.000309    0.000309     0.93591     0.93591
  714.2000       0.274    0.000310    0.000310    0.000310     0.93547     0.93547
  714.8000       0.273    0.000310    0.000310    0.000310    0.932874    0.932874
  715.4000       0.272    0.000310    0.000310    0.000310    0.917235    0.917235
  716.0000       0.271    0.000310    0.000310    0.000310    0.892376    0.892376
  716.6000       0.270    0.000311    0.000311    0.000311    0.873658    0.873658
  717.2000       0.270    0.000313    0.000313    0.000313    0.854514    0.854514
  717.8000       0.271    0.000315    0.000315    0.000315     0.82242     0.82242
  718.4000       0.270    0.000315    0.000315    0.000315    0.788088    0.788088
  719.0000       0.269    0.000315    0.000315    0.000315    0.766793    0.766793
  719.6000       0.267    0.000313    0.000313    0.000313     0.76951     0.76951
  720.2000       0.265    0.000314    0.000314    0.000314    0.790128    0.790128
  720.8000       0.265    0.000315    0.000315    0.000315    0.804275    0.804275
  721.4000       0.266    0.000318    0.000318    0.000318    0.815547    0.815547
  722.0000       0.265    0.000318    0.000318    0.000318    0.841619    0.841619
  722.6000       0.265    0.000318    0.000318    0.000318    0.862376    0.862376
  723.2000       0.264    0.000319    0.000319    0.000319    0.855147    0.855147
  723.8000       0.263    0.000319    0.000319    0.000319    0.834599    0.834599
  724.4000       0.262    0.000320    0.000320    0.000320    0.816494    0.816494
  725.0000       0.261    0.000320    0.000320    0.000320    0.805914    0.805914
  725.6000       0.260    0.000320    0.000320    0.000320    0.804317    0.804317
  726.2000       0.259    0.000321    0.000321    0.000321    0.810372    0.810372
  726.8000       0.258    0.000321    0.000321    0.000321    0.819624    0.819624
  727.4000       0.257    0.000321    0.000321    0.000321     0.82642     0.82642
  728.0000       0.257    0.000321    0.000321    0.000321    0.826805    0.826805
  728.6000       0.257    0.000323    0.000323    0.000323    0.820973    0.820973
  729.2000       0.257    0.000325    0.000325    0.000325     0.81751     0.81751
  729.8000       0.257    0.000326    0.000326    0.000326    0.820333    0.820333
  730.4000       0.256    0.000327    0.000327    0.000327     0.82616     0.82616
  731.0000       0.255    0.000327    0.000327    0.000327    0.835665    0.835665
  731.6000       0.254    0.000327    0.000327    0.000327    0.851478    0.851478
  732.2000       0.253    0.000327    0.000327    0.000327    0.868471    0.868471
  732.8000       0.252    0.000328    0.000328    0.000328    0.881396    0.881396
  733.4000       0.252    0.000330    0.000330    0.000330    0.894588    0.894588
  734.0000       0.252    0.000331    0.000331    0.000331    0.909902    0.909902
  734.6000       0.252    0.000332    0.000332    0.000332    0.921572    0.921572
  735.2000       0.252    0.000333    0.000333    0.000333    0.926253    0.926253
  735.8000       0.251    0.000334    0.000334    0.000334    0.924271    0.924271
  736.4000       0.249    0.000333    0.000333    0.000333     0.92124     0.92124
  737.0000       0.248    0.000333    0.000333    0.000333    0.923203    0.923203
  737.6000       0.248    0.000334    0.000334    0.000334    0.925305    0.925305
  738.2000       0.248    0.000336    0.000336    0.000336    0.924506    0.924506
  738.8000       0.248    0.000338    0.000338    0.000338    0.929504    0.929504
  739.4000       0.248    0.000339    0.000339    0.000339    0.940491    0.940491
  740.0000       0.246    0.000339    0.000339    0.000339    0.945042    0.945042
  740.6000       0.244    0.000336    0.000336    0.000336    0.943609    0.943609
  741.2000       0.243    0.000337    0.000337    0.000337    0.945274    0.945274
  741.8000       0.243    0.000338    0.000338    0.000338    0.948752    0.948752
  742.4000       0.243    0.000340    0.000340    0.000340    0.950319    0.950319
  743.0000       0.243    0.000342    0.000342    0.000342    0.951918    0.951918
  743.6000       0.242    0.000342    0.000342    0.000342    0.953084    0.953084
  744.2000       0.241    0.000342    0.000342    0.000342    0.954418    0.954418
  744.8000       0.240    0.000342    0.000342    0.000342    0.955749    0.955749
  745.4000       0.239    0.000343    0.000343    0.000343    0.956901    0.956901
  746.0000       0.238    0.000343    0.000343    0.000343    0.957702    0.957702
  746.6000       0.238    0.000344    0.000344    0.000344    0.957672    0.957672
  747.2000       0.239    0.000346    0.000346    0.000346    0.956647    0.956647
  747.8000       0.238    0.000347    0.000347    0.000347    0.957112    0.957112
  748.4000       0.238    0.000348    0.000348    0.000348    0.958064    0.958064
  749.0000       0.237    0.000348    0.000348    0.000348    0.958627    0.958627
  749.6000       0.235    0.000349    0.000349    0.000349    0.958848    0.958848
  750.2000       0.235    0.000349    0.000349    0.000349    0.958788    0.958788
  750.8000       0.234    0.000349    0.000349    0.000349     0.95855     0.95855
  751.4000       0.234    0.000350    0.000350    0.000350    0.958782    0.958782
  752.0000       0.234    0.000353    0.000353    0.000353     0.95973     0.95973
  752.6000       0.234    0.000354    0.000354    0.000354    0.959454    0.959454
  753.2000       0.233    0.000354    0.000354    0.000354    0.958883    0.958883
  753.8000       0.232    0.000354    0.000354    0.000354    0.961594    0.961594
  754.4000       0.231    0.000354    0.000354    0.000354    0.963448    0.963448
  755.0000       0.230    0.000354    0.000354    0.000354    0.964976    0.964976
  755.6000       0.229    0.000355    0.000355    0.000355    0.965498    0.965498
  756.2000       0.229    0.000356    0.000356    0.000356    0.964333    0.964333
  756.8000       0.229    0.000358    0.000358    0.000358    0.960802    0.960802
  757.4000       0.229    0.000359    0.000359    0.000359    0.954225    0.954225
  758.0000       0.230    0.000362    0.000362    0.000362    0.927953    0.927953
  758.6000       0.230    0.000364    0.000364    0.000364    0.838882    0.838882
  759.2000       0.229    0.000363    0.000363    0.000363    0.721774    0.721774
  759.8000       0.227    0.000363    0.000363    0.000363    0.594872    0.594872
  760.4000       0.225    0.000360    0.000360    0.000360    0.471938    0.471938
  761.0000       0.225    0.000362    0.000362    0.000362    0.389198    0.389198
  761.6000       0.225    0.000363    0.000363    0.000363    0.378632    0.378632
  762.2000       0.225    0.000365    0.000365    0.000365    0.420818    0.420818
  762.8000       0.224    0.000364    0.000364    0.000364    0.476391    0.476391
  763.4000       0.223    0.000365    0.000365    0.000365    0.492574    0.492574
  764.0000       0.222    0.000364    0.000364    0.000364     0.48096     0.48096
  764.6000       0.223    0.000365    0.000365    0.000365    0.516116    0.516116
  765.2000       0.223    0.000367    0.000367    0.000367    0.591709    0.591709
  765.8000       0.222    0.000368    0.000368    0.000368    0.660123    0.660123
  766.4000       0.221    0.000366    0.000366    0.000366    0.721093    0.721093
  767.0000       0.220    0.000367    0.000367    0.000367    0.782959    0.782959
  767.6000       0.220    0.000367    0.000367    0.000367     0.83582     0.83582
  768.2000       0.220    0.000369    0.000369    0.000369    0.874447    0.874447
  768.8000       0.220    0.000370    0.000370    0.000370    0.904498    0.904498
  769.4000       0.220    0.000370    0.000370    0.000370    0.926736    0.926736
  770.0000       0.219    0.000369    0.000369    0.000369    0.938417    0.938417
  770.6000       0.217    0.000369    0.000369    0.000369    0.945724    0.945724
  771.2000       0.216    0.000368    0.000368    0.000368    0.955644    0.955644
  771.8000       0.216    0.000369    0.000369    0.000369    0.962858    0.962858
  772.4000       0.216    0.000370    0.000370    0.000370    0.963517    0.963517
  773.0000       0.216    0.000370    0.000370    0.000370    0.962421    0.962421
  773.6000       0.216    0.000372    0.000372    0.000372    0.962541    0.962541
  774.2000       0.215    0.000372    0.000372    0.000372    0.963625    0.963625
  774.8000       0.214    0.000371    0.000371    0.000371    0.964768    0.964768
  775.4000       0.213    0.000370    0.000370    0.000370     0.96502     0.96502
  776.0000       0.212    0.000370    0.000370    0.000370    0.964818    0.964818
  776.6000       0.211    0.000370    0.000370    0.000370    0.964798    0.964798
  777.2000       0.211    0.000371    0.000371    0.000371    0.964848    0.964848
  777.8000       0.211    0.000373    0.000373    0.000373    0.964844    0.964844
  778.4000       0.211    0.000373    0.000373    0.000373    0.964836    0.964836
  779.0000       0.211    0.000374    0.000374    0.000374    0.964835    0.964835
  779.6000       0.210    0.000373    0.000373    0.000373    0.964834    0.964834
  780.2000       0.209    0.000372    0.000372    0.000372    0.964834    0.964834
  780.8000       0.208    0.000371    0.000371    0.000371    0.964834    0.964834
  781.4000       0.207    0.000372    0.000372    0.000372    0.964835    0.964835
  782.0000       0.207    0.000371    0.000371    0.000371    0.964836    0.964836
  782.6000       0.206    0.000373    0.000373    0.000373    0.964837    0.964837
  783.2000       0.207    0.000374    0.000374    0.000374    0.964837    0.964837
  783.8000       0.207    0.000377    0.000377    0.000377    0.964837    0.964837
  784.4000       0.207    0.000377    0.000377    0.000377    0.964837    0.964837
  785.0000       0.207    0.000378    0.000378    0.000378    0.964717    0.964717
  785.6000       0.206    0.000378    0.000378    0.000378    0.963618    0.963618
  786.2000       0.205    0.000377    0.000377    0.000377    0.961449    0.961449
  786.8000       0.204    0.000377    0.000377    0.000377    0.960981    0.960981
  787.4000       0.204    0.000379    0.000379    0.000379    0.961301    0.961301
  788.0000       0.204    0.000380    0.000380    0.000380    0.955497    0.955497
  788.6000       0.204    0.000380    0.000380    0.000380     0.94605     0.94605
  789.2000       0.203    0.000380    0.000380    0.000380    0.942654    0.942654
  789.8000       0.202    0.000379    0.000379    0.000379    0.943529    0.943529
  790.4000       0.201    0.000379    0.000379    0.000379    0.942829    0.942829
  791.0000       0.200    0.000378    0.000378    0.000378    0.941183    0.941183
  791.6000       0.200    0.000378    0.000378    0.000378     0.94099     0.94099
  792.2000       0.200    0.000379    0.000379    0.000379    0.944789    0.944789
  792.8000       0.200    0.000381    0.000381    0.000381    0.951584    0.951584
  793.4000       0.199    0.000382    0.000382    0.000382    0.956456    0.956456
  794.0000       0.198    0.000380    0.000380    0.000380    0.957783    0.957783
  794.6000       0.198    0.000380    0.000380    0.000380    0.956222    0.956222
  795.2000       0.198    0.000381    0.000381    0.000381    0.952156    0.952156
  795.8000       0.198    0.000382    0.000382    0.000382    0.946345    0.946345
  796.4000       0.197    0.000384    0.000384    0.000384    0.941024    0.941024
  797.0000       0.197    0.000383    0.000383    0.000383    0.939084    0.939084
  797.6000       0.196    0.000382    0.000382    0.000382    0.943683    0.943683
  798.2000       0.195    0.000382    0.000382    0.000382    0.951393    0.951393
  798.8000       0.195    0.000385    0.000385    0.000385    0.953975    0.953975
  799.4000       0.195    0.000385    0.000385    0.000385    0.952683    0.952683
  800.0000       0.195    0.000385    0.000385    0.000385    0.951928    0.951928
  800.6000       0.194    0.000385    0.000385    0.000385    0.949064    0.949064
  801.2000       0.193    0.000385    0.000385    0.000385    0.942992    0.942992
  801.8000       0.193    0.000385    0.000385    0.000385    0.939995    0.939995
  802.4000       0.193    0.000388    0.000388    0.000388    0.941728    0.941728
  803.0000       0.193    0.000388    0.000388    0.000388    0.943349    0.943349
  803.6000       0.192    0.000387    0.000387    0.000387    0.944321    0.944321
  804.2000       0.191    0.000387    0.000387    0.000387    0.946924    0.946924
  804.8000       0.190    0.000385    0.000385    0.000385    0.951022    0.951022
  805.4000       0.189    0.000385    0.000385    0.000385    0.955406    0.955406
  806.0000       0.189    0.000385    0.000385    0.000385    0.958415    0.958415
  806.6000       0.188    0.000385    0.000385    0.000385    0.959112    0.959112
  807.2000       0.188    0.000388    0.000388    0.000388     0.95797     0.95797
  807.8000       0.189    0.000388    0.000388    0.000388    0.956724    0.956724
  808.4000       0.189    0.000390    0.000390    0.000390    0.957433    0.957433
  809.0000       0.189    0.000392    0.000392    0.000392    0.955865    0.955865
  809.6000       0.188    0.000391    0.000391    0.000391    0.947572    0.947572
  810.2000       0.187    0.000391    0.000391    0.000391    0.941376    0.941376
  810.8000       0.186    0.000391    0.000391    0.000391    0.941398    0.941398
  811.4000       0.185    0.000390    0.000390    0.000390    0.933086    0.933086
  812.0000       0.184    0.000389    0.000389    0.000389    0.914044    0.914044
  812.6000       0.184    0.000390    0.000390    0.000390    0.899121    0.899121
  813.2000       0.184    0.000391    0.000391    0.000391    0.885841    0.885841
  813.8000       0.184    0.000393    0.000393    0.000393    0.861872    0.861872
  814.4000       0.184    0.000393    0.000393    0.000393    0.834656    0.834656
  815.0000       0.183    0.000392    0.000392    0.000392    0.814632    0.814632
  815.6000       0.182    0.000392    0.000392    0.000392    0.797232    0.797232
  816.2000       0.182    0.000393    0.000393    0.000393    0.780589    0.780589
  816.8000       0.182    0.000394    0.000394    0.000394    0.772363    0.772363
  817.4000       0.182    0.000396    0.000396    0.000396    0.774741    0.774741
  818.0000       0.181    0.000396    0.000396    0.000396    0.783608    0.783608
  818.6000       0.180    0.000394    0.000394    0.000394    0.793348    0.793348
  819.2000       0.179    0.000396    0.000396    0.000396    0.801204    0.801204
  819.8000       0.179    0.000396    0.000396    0.000396    0.820377    0.820377
  820.4000       0.180    0.000398    0.000398    0.000398    0.854616    0.854616
  821.0000       0.179    0.000399    0.000399    0.000399    0.874947    0.874947
  821.6000       0.178    0.000396    0.000396    0.000396    0.863138    0.863138
  822.2000       0.177    0.000398    0.000398    0.000398     0.82248     0.82248
  822.8000       0.177    0.000398    0.000398    0.000398    0.775839    0.775839
  823.4000       0.177    0.000399    0.000399    0.000399    0.755428    0.755428
  824.0000       0.177    0.000402    0.000402    0.000402    0.768217    0.768217
  824.6000       0.176    0.000399    0.000399    0.000399    0.807385    0.807385
  825.2000       0.175    0.000400    0.000400    0.000400    0.854118    0.854118
  825.8000       0.175    0.000400    0.000400    0.000400    0.888492    0.888492
  826.4000       0.175    0.000402    0.000402    0.000402    0.894003    0.894003
  827.0000       0.175    0.000405    0.000405    0.000405     0.87684     0.87684
  827.6000       0.174    0.000403    0.000403    0.000403    0.862912    0.862912
  828.2000       0.173    0.000403    0.000403    0.000403    0.855471    0.855471
  828.8000       0.173    0.000403    0.000403    0.000403    0.847882    0.847882
  829.4000       0.172    0.000403    0.000403    0.000403    0.848084    0.848084
  830.0000       0.172    0.000406    0.000406    0.000406    0.860761    0.860761
  830.6000       0.173    0.000409    0.000409    0.000409    0.872231    0.872231
  831.2000       0.173    0.000410    0.000410    0.000410    0.875635    0.875635
  831.8000       0.173    0.000411    0.000411    0.000411     0.87664     0.87664
  832.4000       0.172    0.000412    0.000412    0.000412    0.876065    0.876065
  833.0000       0.171    0.000411    0.000411    0.000411    0.872537    0.872537
  833.6000       0.170    0.000410    0.000410    0.000410    0.879028    0.879028
  834.2000       0.170    0.000413    0.000413    0.000413    0.904484    0.904484
  834.8000       0.170    0.000414    0.000414    0.000414    0.923678    0.923678
  835.4000       0.170    0.000415    0.000415    0.000415    0.923145    0.923145
  836.0000       0.169    0.000415    0.000415    0.000415    0.923848    0.923848
  836.6000       0.168    0.000415    0.000415    0.000415    0.933404    0.933404
  837.2000       0.168    0.000414    0.000414    0.000414     0.94263     0.94263
  837.8000       0.168    0.000416    0.000416    0.000416    0.948334    0.948334
  838.4000       0.168    0.000419    0.000419    0.000419    0.951295    0.951295
  839.0000       0.168    0.000421    0.000421    0.000421    0.952878    0.952878
  839.6000       0.168    0.000423    0.000423    0.000423    0.954134    0.954134
  840.2000       0.168    0.000424    0.000424    0.000424     0.95491     0.95491
  840.8000       0.167    0.000424    0.000424    0.000424     0.95539     0.95539
  841.4000       0.166    0.000424    0.000424    0.000424    0.956449    0.956449
  842.0000       0.166    0.000423    0.000423    0.000423    0.958336    0.958336
  842.6000       0.166    0.000426    0.000426    0.000426    0.960719    0.960719
  843.2000       0.166    0.000428    0.000428    0.000428    0.962875    0.962875
  843.8000       0.166    0.000430    0.000430    0.000430    0.964395    0.964395
  844.4000       0.166    0.000433    0.000433    0.000433    0.966558    0.966558
  845.0000       0.166    0.000434    0.000434    0.000434    0.969666    0.969666
  845.6000       0.165    0.000434    0.000434    0.000434    0.971543    0.971543
  846.2000       0.164    0.000432    0.000432    0.000432    0.971863    0.971863
  846.8000       0.163    0.000434    0.000434    0.000434    0.972369    0.972369
  847.4000       0.164    0.000437    0.000437    0.000437    0.972943    0.972943
  848.0000       0.164    0.000438    0.000438    0.000438      0.9726      0.9726
  848.6000       0.163    0.000438    0.000438    0.000438    0.971843    0.971843
  849.2000       0.162    0.000439    0.000439    0.000439    0.971294    0.971294
  849.8000       0.161    0.000439    0.000439    0.000439    0.970798    0.970798
  850.4000       0.161    0.000441    0.000441    0.000441    0.970424    0.970424
  851.0000       0.161    0.000444    0.000444    0.000444    0.970096    0.970096
  851.6000       0.161    0.000447    0.000447    0.000447    0.969918    0.969918
  852.2000       0.162    0.000449    0.000449    0.000449    0.970177    0.970177
  852.8000       0.161    0.000451    0.000451    0.000451    0.970945    0.970945
  853.4000       0.161    0.000452    0.000452    0.000452    0.971632    0.971632
  854.0000       0.160    0.000453    0.000453    0.000453    0.971987    0.971987
  854.6000       0.159    0.000453    0.000453    0.000453     0.97199     0.97199
  855.2000       0.159    0.000456    0.000456    0.000456    0.971926    0.971926
  855.8000       0.159    0.000457    0.000457    0.000457    0.972483    0.972483
  856.4000       0.159    0.000459    0.000459    0.000459    0.973293    0.973293
  857.0000       0.158    0.000460    0.000460    0.000460    0.973869    0.973869
  857.6000       0.157    0.000460    0.000460    0.000460    0.974504    0.974504
  858.2000       0.157    0.000462    0.000462    0.000462     0.97516     0.97516
  858.8000       0.156    0.000465    0.000465    0.000465    0.975796    0.975796
  859.4000       0.157    0.000468    0.000468    0.000468    0.976372    0.976372
  860.0000       0.157    0.000473    0.000473    0.000473    0.976848    0.976848
  860.6000       0.157    0.000475    0.000475    0.000475    0.977449    0.977449
  861.2000       0.157    0.000475    0.000475    0.000475    0.977132    0.977132
  861.8000       0.156    0.000476    0.000476    0.000476    0.976716    0.976716
  862.4000       0.155    0.000477    0.000477    0.000477    0.977023    0.977023
  863.0000       0.154    0.000478    0.000478    0.000478    0.978217    0.978217
  863.6000       0.154    0.000482    0.000482    0.000482    0.979169    0.979169
  864.2000       0.155    0.000483    0.000483    0.000483    0.979171    0.979171
  864.8000       0.154    0.000488    0.000488    0.000488     0.97899     0.97899
  865.4000       0.153    0.000485    0.000485    0.000485    0.979021    0.979021
  866.0000       0.152    0.000486    0.000486    0.000486    0.979056    0.979056
  866.6000       0.152    0.000489    0.000489    0.000489    0.979043    0.979043
  867.2000       0.152    0.000493    0.000493    0.000493    0.979039    0.979039
  867.8000       0.152    0.000497    0.000497    0.000497    0.979037    0.979037
  868.4000       0.152    0.000498    0.000498    0.000498    0.979037    0.979037
  869.0000       0.152    0.000505    0.000505    0.000505    0.979038    0.979038
  869.6000       0.152    0.000503    0.000503    0.000503    0.979039    0.979039
  870.2000       0.151    0.000505    0.000505    0.000505     0.97904     0.97904
  870.8000       0.150    0.000506    0.000506    0.000506    0.979041    0.979041
  871.4000       0.150    0.000508    0.000508    0.000508    0.979042    0.979042
  872.0000       0.150    0.000512    0.000512    0.000512    0.979041    0.979041
  872.6000       0.150    0.000517    0.000517    0.000517    0.979041    0.979041
  873.2000       0.150    0.000522    0.000522    0.000522    0.979041    0.979041
  873.8000       0.150    0.000522    0.000522    0.000522     0.97904     0.97904
  874.4000       0.150    0.000525    0.000525    0.000525    0.979043    0.979043
  875.0000       0.149    0.000526    0.000526    0.000526    0.979043    0.979043
  875.6000       0.148    0.000527    0.000527    0.000527    0.979033    0.979033
  876.2000       0.147    0.000530    0.000530    0.000530    0.979037    0.979037
  876.8000       0.147    0.000535    0.000535    0.000535     0.97908     0.97908
  877.4000       0.148    0.000540    0.000540    0.000540    0.979025    0.979025
  878.0000       0.148    0.000541    0.000541    0.000541    0.978642    0.978642
  878.6000       0.148    0.000546    0.000546    0.000546    0.977891    0.977891
  879.2000       0.147    0.000549    0.000549    0.000549    0.977432    0.977432
  879.8000       0.147    0.000551    0.000551    0.000551    0.976952    0.976952
  880.4000       0.146    0.000552    0.000552    0.000552    0.976512    0.976512
  881.0000       0.145    0.000555    0.000555    0.000555    0.976174    0.976174
  881.6000       0.145    0.000555    0.000555    0.000555    0.975998    0.975998
  882.2000       0.145    0.000561    0.000561    0.000561    0.976464    0.976464
  882.8000       0.146    0.000567    0.000567    0.000567    0.977056    0.977056
  883.4000       0.146    0.000573    0.000573    0.000573    0.976907    0.976907
  884.0000       0.145    0.000576    0.000576    0.000576    0.977367    0.977367
  884.6000       0.144    0.000579    0.000579    0.000579     0.97815     0.97815
  885.2000       0.143    0.000576    0.000576    0.000576    0.976906    0.976906
  885.8000       0.143    0.000578    0.000578    0.000578    0.974267    0.974267
  886.4000       0.143    0.000584    0.000584    0.000584     0.97257     0.97257
  887.0000       0.143    0.000590    0.000590    0.000590      0.9719      0.9719
  887.6000       0.143    0.000596    0.000596    0.000596    0.971723    0.971723
  888.2000       0.143    0.000602    0.000602    0.000602    0.972152    0.972152
  888.8000       0.143    0.000604    0.000604    0.000604    0.973265    0.973265
  889.4000       0.143    0.000608    0.000608    0.000608    0.974851    0.974851
  890.0000       0.143    0.000615    0.000615    0.000615    0.975972    0.975972
  890.6000       0.143    0.000619    0.000619    0.000619    0.975021    0.975021
  891.2000       0.142    0.000621    0.000621    0.000621     0.97009     0.97009
  891.8000       0.141    0.000622    0.000622    0.000622    0.961041    0.961041
  892.4000       0.141    0.000622    0.000622    0.000622    0.955891    0.955891
  893.0000       0.141    0.000629    0.000629    0.000629    0.955581    0.955581
  893.6000       0.141    0.000636    0.000636    0.000636    0.940843    0.940843
  894.2000       0.141    0.000644    0.000644    0.000644      0.9117      0.9117
  894.8000       0.141    0.000651    0.000651    0.000651    0.893108    0.893108
  895.4000       0.141    0.000650    0.000650    0.000650    0.879904    0.879904
  896.0000       0.140    0.000653    0.000653    0.000653    0.851016    0.851016
  896.6000       0.139    0.000656    0.000656    0.000656    0.822684    0.822684
  897.2000       0.138    0.000660    0.000660    0.000660    0.810951    0.810951
  897.8000       0.138    0.000668    0.000668    0.000668    0.786767    0.786767
  898.4000       0.139    0.000671    0.000671    0.000671    0.741199    0.741199
  899.0000       0.139    0.000678    0.000678    0.000678    0.712589    0.712589
  899.6000       0.139    0.000686    0.000686    0.000686    0.708462    0.708462
  900.2000       0.138    0.000692    0.000692    0.000692    0.706276    0.706276
  900.8000       0.138    0.000688    0.000688    0.000688    0.712702    0.712702
  901.4000       0.137    0.000693    0.000693    0.000693     0.74267     0.74267
  902.0000       0.136    0.000697    0.000697    0.000697    0.776853    0.776853
  902.6000       0.136    0.000706    0.000706    0.000706    0.798101    0.798101
  903.2000       0.136    0.000709    0.000709    0.000709    0.816464    0.816464
  903.8000       0.136    0.000717    0.000717    0.000717    0.839502    0.839502
  904.4000       0.137    0.000727    0.000727    0.000727    0.865703    0.865703
  905.0000       0.136    0.000734    0.000734    0.000734    0.880446    0.880446
  905.6000       0.135    0.000737    0.000737    0.000737      0.8654      0.8654
  906.2000       0.134    0.000734    0.000734    0.000734    0.835763    0.835763
  906.8000       0.134    0.000742    0.000742    0.000742    0.812346    0.812346
  907.4000       0.134    0.000744    0.000744    0.000744    0.791318    0.791318
  908.0000       0.134    0.000751    0.000751    0.000751    0.769855    0.769855
  908.6000       0.134    0.000762    0.000762    0.000762    0.755474    0.755474
  909.2000       0.134    0.000773    0.000773    0.000773    0.752579    0.752579
  909.8000       0.134    0.000781    0.000781    0.000781    0.760864    0.760864
  910.4000       0.134    0.000782    0.000782    0.000782      0.7738      0.7738
  911.0000       0.134    0.000795    0.000795    0.000795    0.781946    0.781946
  911.6000       0.134    0.000800    0.000800    0.000800    0.777557    0.777557
  912.2000       0.134    0.000807    0.000807    0.000807    0.760105    0.760105
  912.8000       0.134    0.000820    0.000820    0.000820    0.745015    0.745015
  913.4000       0.134    0.000817    0.000817    0.000817     0.74027     0.74027
  914.0000       0.133    0.000824    0.000824    0.000824    0.741047    0.741047
  914.6000       0.132    0.000830    0.000830    0.000830     0.74407     0.74407
  915.2000       0.131    0.000840    0.000840    0.000840    0.747893    0.747893
  915.8000       0.132    0.000846    0.000846    0.000846    0.751263    0.751263
  916.4000       0.132    0.000854    0.000854    0.000854    0.754106    0.754106
  917.0000       0.132    0.000871    0.000871    0.000871    0.760088    0.760088
  917.6000       0.132    0.000872    0.000872    0.000872    0.771936    0.771936
  918.2000       0.131    0.000882    0.000882    0.000882    0.789174    0.789174
  918.8000       0.131    0.000888    0.000888    0.000888    0.809358    0.809358
  919.4000       0.130    0.000879    0.000879    0.000879     0.82886     0.82886
  920.0000       0.129    0.000889    0.000889    0.000889    0.848473    0.848473
  920.6000       0.129    0.000904    0.000904    0.000904    0.869105    0.869105
  921.2000       0.129    0.000912    0.000912    0.000912    0.880187    0.880187
  921.8000       0.130    0.000931    0.000931    0.000931    0.875271    0.875271
  922.4000       0.130    0.000933    0.000933    0.000933    0.866609    0.866609
  923.0000       0.129    0.000932    0.000932    0.000932    0.861618    0.861618
  923.6000       0.128    0.000954    0.000954    0.000954    0.857273    0.857273
  924.2000       0.127    0.000941    0.000941    0.000941    0.851348    0.851348
  924.8000       0.127    0.000956    0.000956    0.000956    0.844134    0.844134
  925.4000       0.127    0.000973    0.000973    0.000973    0.845052    0.845052
  926.0000       0.127    0.000968    0.000968    0.000968    0.856463    0.856463
  926.6000       0.127    0.001001    0.001001    0.001001    0.842917    0.842917
  927.2000       0.127    0.001002    0.001002    0.001002    0.796006    0.796006
  927.8000       0.127    0.001005    0.001005    0.001005    0.770597    0.770597
  928.4000       0.127    0.001027    0.001027    0.001027    0.762315    0.762315
  929.0000       0.127    0.001040    0.001040    0.001040    0.706688    0.706688
  929.6000       0.127    0.001030    0.001030    0.001030    0.625431    0.625431
  930.2000       0.126    0.001051    0.001051    0.001051    0.576773    0.576773
  930.8000       0.125    0.001055    0.001055    0.001055    0.543598    0.543598
  931.4000       0.125    0.001050    0.001050    0.001050    0.497673    0.497673
  932.0000       0.125    0.001090    0.001090    0.001090      0.4429      0.4429
  932.6000       0.125    0.001089    0.001089    0.001089    0.385568    0.385568
  933.2000       0.125    0.001087    0.001087    0.001087    0.328737    0.328737
  933.8000       0.125    0.001110    0.001110    0.001110    0.285154    0.285154
  934.4000       0.125    0.001133    0.001133    0.001133    0.272408    0.272408
  935.0000       0.125    0.001130    0.001130    0.001130    0.286635    0.286635
  935.6000       0.125    0.001128    0.001128    0.001128    0.311153    0.311153
  936.2000       0.125    0.001174    0.001174    0.001174    0.317107    0.317107
  936.8000       0.125    0.001171    0.001171    0.001171    0.301835    0.301835
  937.4000       0.125    0.001178    0.001178    0.001178     0.31653     0.31653
  938.0000       0.125    0.001210    0.001210    0.001210     0.36491     0.36491
  938.6000       0.125    0.001224    0.001224    0.001224    0.398855    0.398855
  939.2000       0.125    0.001216    0.001216    0.001216    0.428872    0.428872
  939.8000       0.124    0.001229    0.001229    0.001229    0.488293    0.488293
  940.4000       0.123    0.001250    0.001250    0.001250    0.538802    0.538802
  941.0000       0.122    0.001245    0.001245    0.001245    0.540393    0.540393
  941.6000       0.122    0.001242    0.001242    0.001242     0.51057     0.51057
  942.2000       0.123    0.001264    0.001264    0.001264    0.471429    0.471429
  942.8000       0.123    0.001309    0.001309    0.001309    0.437463    0.437463
  943.4000       0.123    0.001304    0.001304    0.001304     0.41579     0.41579
  944.0000       0.123    0.001295    0.001295    0.001295    0.407475    0.407475
  944.6000       0.122    0.001344    0.001344    0.001344    0.409714    0.409714
  945.2000       0.121    0.001339    0.001339    0.001339    0.417458    0.417458
  945.8000       0.120    0.001333    0.001333    0.001333    0.423492    0.423492
  946.4000       0.120    0.001328    0.001328    0.001328    0.423073    0.423073
  947.0000       0.120    0.001357    0.001357    0.001357    0.417775    0.417775
  947.6000       0.121    0.001407    0.001407    0.001407    0.419686    0.419686
  948.2000       0.121    0.001399    0.001399    0.001399    0.447763    0.447763
  948.8000       0.120    0.001400    0.001400    0.001400    0.477759    0.477759
  949.4000       0.120    0.001386    0.001386    0.001386    0.471899    0.471899
  950.0000       0.119    0.001448    0.001448    0.001448    0.464641    0.464641
  950.6000       0.118    0.001436    0.001436    0.001436    0.490727    0.490727
  951.2000       0.118    0.001439    0.001439    0.001439    0.518776    0.518776
  951.8000       0.118    0.001432    0.001432    0.001432    0.520085    0.520085
  952.4000       0.118    0.001485    0.001485    0.001485    0.489023    0.489023
  953.0000       0.118    0.001520    0.001520    0.001520    0.454334    0.454334
  953.6000       0.118    0.001514    0.001514    0.001514    0.463717    0.463717
  954.2000       0.118    0.001514    0.001514    0.001514    0.499826    0.499826
  954.8000       0.118    0.001517    0.001517    0.001517    0.523265    0.523265
  955.4000       0.118    0.001569    0.001569    0.001569    0.528246    0.528246
  956.0000       0.118    0.001605    0.001605    0.001605    0.523508    0.523508
  956.6000       0.118    0.001600    0.001600    0.001600      0.5299      0.5299
  957.2000       0.118    0.001595    0.001595    0.001595    0.545011    0.545011
  957.8000       0.117    0.001578    0.001578    0.001578    0.541092    0.541092
  958.4000       0.116    0.001609    0.001609    0.001609    0.523902    0.523902
  959.0000       0.116    0.001657    0.001657    0.001657    0.517223    0.517223
  959.6000       0.116    0.001656    0.001656    0.001656     0.52069     0.52069
  960.2000       0.116    0.001660    0.001660    0.001660    0.529973    0.529973
  960.8000       0.116    0.001657    0.001657    0.001657    0.553472    0.553472
  961.4000       0.116    0.001683    0.001683    0.001683    0.589376    0.589376
  962.0000       0.116    0.001751    0.001751    0.001751    0.617376    0.617376
  962.6000       0.116    0.001762    0.001762    0.001762    0.632514    0.632514
  963.2000       0.116    0.001761    0.001761    0.001761    0.643629    0.643629
  963.8000       0.116    0.001764    0.001764    0.001764    0.651886    0.651886
  964.4000       0.116    0.001764    0.001764    0.001764     0.65567     0.65567
  965.0000       0.116    0.001777    0.001777    0.001777    0.658033    0.658033
  965.6000       0.115    0.001842    0.001842    0.001842    0.663417    0.663417
  966.2000       0.114    0.001854    0.001854    0.001854    0.676601    0.676601
  966.8000       0.113    0.001839    0.001839    0.001839    0.699853    0.699853
  967.4000       0.113    0.001838    0.001838    0.001838    0.732174    0.732174
  968.0000       0.113    0.001840    0.001840    0.001840    0.769512    0.769512
  968.6000       0.114    0.001847    0.001847    0.001847    0.805776    0.805776
  969.2000       0.114    0.001928    0.001928    0.001928    0.834061    0.834061
  969.8000       0.114    0.001977    0.001977    0.001977    0.850008    0.850008
  970.4000       0.114    0.001973    0.001973    0.001973     0.85764     0.85764
  971.0000       0.114    0.001976    0.001976    0.001976    0.860898    0.860898
  971.6000       0.113    0.001970    0.001970    0.001970    0.860873    0.860873
  972.2000       0.113    0.001956    0.001956    0.001956    0.854424    0.854424
  972.8000       0.112    0.001942    0.001942    0.001942    0.836355    0.836355
  973.4000       0.111    0.002020    0.002020    0.002020    0.814183    0.814183
  974.0000       0.111    0.002080    0.002080    0.002080    0.798294    0.798294
  974.6000       0.111    0.002076    0.002076    0.002076    0.784313    0.784313
  975.2000       0.111    0.002083    0.002083    0.002083    0.771776    0.771776
  975.8000       0.112    0.002084    0.002084    0.002084    0.776947    0.776947
  976.4000       0.111    0.002080    0.002080    0.002080    0.799794    0.799794
  977.0000       0.110    0.002064    0.002064    0.002064    0.819019    0.819019
  977.6000       0.110    0.002142    0.002142    0.002142    0.829456    0.829456
  978.2000       0.109    0.002209    0.002209    0.002209    0.836762    0.836762
  978.8000       0.109    0.002198    0.002198    0.002198    0.840098    0.840098
  979.4000       0.109    0.002204    0.002204    0.002204    0.839831    0.839831
  980.0000       0.109    0.002206    0.002206    0.002206    0.847607    0.847607
  980.6000       0.109    0.002206    0.002206    0.002206    0.866764    0.866764
  981.2000       0.109    0.002205    0.002205    0.002205    0.883736    0.883736
  981.8000       0.109    0.002203    0.002203    0.002203    0.893947    0.893947
  982.4000       0.109    0.002214    0.002214    0.002214    0.902232    0.902232
  983.0000       0.109    0.002341    0.002341    0.002341    0.909846    0.909846
  983.6000       0.109    0.002416    0.002416    0.002416    0.916398    0.916398
  984.2000       0.109    0.002405    0.002405    0.002405    0.923191    0.923191
  984.8000       0.109    0.002395    0.002395    0.002395    0.931142    0.931142
  985.4000       0.108    0.002374    0.002374    0.002374    0.939235    0.939235
  986.0000       0.107    0.002355    0.002355    0.002355    0.946818    0.946818
  986.6000       0.107    0.002348    0.002348    0.002348    0.953938    0.953938
  987.2000       0.107    0.002343    0.002343    0.002343    0.959274    0.959274
  987.8000       0.107    0.002394    0.002394    0.002394    0.961233    0.961233
  988.4000       0.107    0.002465    0.002465    0.002465    0.962758    0.962758
  989.0000       0.107    0.002542    0.002542    0.002542    0.966599    0.966599
  989.6000       0.107    0.002590    0.002590    0.002590    0.969332    0.969332
  990.2000       0.107    0.002582    0.002582    0.002582    0.969147    0.969147
  990.8000       0.107    0.002584    0.002584    0.002584     0.96901     0.96901
  991.4000       0.107    0.002588    0.002588    0.002588    0.969939    0.969939
  992.0000       0.107    0.002591    0.002591    0.002591    0.970793    0.970793
  992.6000       0.107    0.002584    0.002584    0.002584    0.971873    0.971873
  993.2000       0.106    0.002569    0.002569    0.002569    0.973971    0.973971
  993.8000       0.105    0.002533    0.002533    0.002533    0.976411    0.976411
  994.4000       0.104    0.002630    0.002630    0.002630    0.978314    0.978314
  995.0000       0.104    0.002798    0.002798    0.002798    0.979126    0.979126
  995.6000       0.104    0.002803    0.002803    0.002803      0.9793      0.9793
  996.2000       0.105    0.002809    0.002809    0.002809    0.979433    0.979433
  996.8000       0.105    0.002808    0.002808    0.002808    0.979542    0.979542
  997.4000       0.104    0.002807    0.002807    0.002807    0.979647    0.979647
  998.0000       0.104    0.002806    0.002806    0.002806    0.979766    0.979766
  998.6000       0.104    0.002806    0.002806    0.002806    0.979917    0.979917
  999.2000       0.104    0.002807    0.002807    0.002807    0.980331    0.980331
  999.8000       0.104    0.002807    0.002807    0.002807      0.9812      0.9812
 1000.4000       0.104    0.002807    0.002807    0.002807    0.980277    0.980277
 1001.0000       0.104    0.002806    0.002806    0.002806    0.977696    0.977696
 1001.6000       0.104    0.002804    0.002804    0.002804    0.975693    0.975693
 1002.2000       0.104    0.002809    0.002809    0.002809    0.974987    0.974987
 1002.8000       0.105    0.002798    0.002798    0.002798    0.975488    0.975488
 1003.4000       0.105    0.002937    0.002937    0.002937    0.977457    0.977457
 1004.0000       0.104    0.003146    0.003146    0.003146    0.980541    0.980541
 1004.6000       0.104    0.003124    0.003124    0.003124    0.982658    0.982658
 1005.2000       0.103    0.003098    0.003098    0.003098    0.983084    0.983084
 1005.8000       0.102    0.003078    0.003078    0.003078    0.983189    0.983189
 1006.4000       0.102    0.003076    0.003076    0.003076    0.983171    0.983171
 1007.0000       0.102    0.003081    0.003081    0.003081    0.982371    0.982371
 1007.6000       0.102    0.003085    0.003085    0.003085    0.980996    0.980996
 1008.2000       0.102    0.003085    0.003085    0.003085    0.979433    0.979433
 1008.8000       0.102    0.003083    0.003083    0.003083    0.977416    0.977416
 1009.4000       0.102    0.003081    0.003081    0.003081    0.975388    0.975388
 1010.0000       0.102    0.003081    0.003081    0.003081     0.97527     0.97527
 1010.6000       0.102    0.003083    0.003083    0.003083    0.977286    0.977286
 1011.2000       0.102    0.003095    0.003095    0.003095    0.979834    0.979834
 1011.8000       0.102    0.003068    0.003068    0.003068     0.98197     0.98197
 1012.4000       0.102    0.003238    0.003238    0.003238    0.983327    0.983327
 1013.0000       0.101    0.003245    0.003245    0.003245    0.984251    0.984251
 1013.6000       0.100    0.003213    0.003213    0.003213    0.984993    0.984993
 1014.2000       0.100    0.003238    0.003238    0.003238    0.985018    0.985018
 1014.8000       0.100    0.003457    0.003457    0.003457    0.984356    0.984356
 1015.4000       0.100    0.003431    0.003431    0.003431    0.983945    0.983945
 1016.0000       0.100    0.003441    0.003441    0.003441    0.984059    0.984059
 1016.6000       0.100    0.003437    0.003437    0.003437    0.984445    0.984445
 1017.2000       0.100    0.003436    0.003436    0.003436    0.985164    0.985164
 1017.8000       0.100    0.003436    0.003436    0.003436     0.98609     0.98609
 1018.4000       0.100    0.003437    0.003437    0.003437    0.985907    0.985907
 1019.0000       0.100    0.003437    0.003437    0.003437    0.984135    0.984135
 1019.6000       0.100    0.003437    0.003437    0.003437    0.982347    0.982347
 1020.2000       0.100    0.003437    0.003437    0.003437    0.981859    0.981859
 1020.8000       0.100    0.003437    0.003437    0.003437    0.983264    0.983264
 1021.4000       0.100    0.003437    0.003437    0.003437    0.985052    0.985052
 1022.0000       0.100    0.003436    0.003436    0.003436    0.985053    0.985053
 1022.6000       0.100    0.003435    0.003435    0.003435    0.983948    0.983948
 1023.2000       0.100    0.003435    0.003435    0.003435    0.983112    0.983112
 1023.8000       0.100    0.003440    0.003440    0.003440    0.983346    0.983346
 1024.4000       0.100    0.003445    0.003445    0.003445    0.984588    0.984588
 1025.0000       0.100    0.003439    0.003439    0.003439    0.985707    0.985707
 1025.6000       0.099    0.003413    0.003413    0.003413    0.986141    0.986141
 1026.2000       0.098    0.003380    0.003380    0.003380    0.985882    0.985882
 1026.8000       0.098    0.003356    0.003356    0.003356    0.985104    0.985104
 1027.4000       0.097    0.003351    0.003351    0.003351    0.984225    0.984225
 1028.0000       0.098    0.003356    0.003356    0.003356     0.98427     0.98427
 1028.6000       0.098    0.003358    0.003358    0.003358    0.985503    0.985503
 1029.2000       0.098    0.003365    0.003365    0.003365    0.986481    0.986481
 1029.8000       0.098    0.003333    0.003333    0.003333    0.986933    0.986933
 1030.4000       0.098    0.003561    0.003561    0.003561    0.987323    0.987323
 1031.0000       0.098    0.003626    0.003626    0.003626    0.987608    0.987608
 1031.6000       0.098    0.003611    0.003611    0.003611    0.987927    0.987927
 1032.2000       0.097    0.003571    0.003571    0.003571    0.988257    0.988257
 1032.8000       0.096    0.003614    0.003614    0.003614    0.988578    0.988578
 1033.4000       0.095    0.003842    0.003842    0.003842    0.988868    0.988868
 1034.0000       0.095    0.003798    0.003798    0.003798    0.989106    0.989106
 1034.6000       0.095    0.003814    0.003814    0.003814    0.989389    0.989389
 1035.2000       0.095    0.003817    0.003817    0.003817    0.989231    0.989231
 1035.8000       0.095    0.003817    0.003817    0.003817    0.989133    0.989133
 1036.4000       0.095    0.003815    0.003815    0.003815    0.989187    0.989187
 1037.0000       0.095    0.003814    0.003814    0.003814    0.989195    0.989195
 1037.6000       0.095    0.003815    0.003815    0.003815    0.989188    0.989188
 1038.2000       0.095    0.003815    0.003815    0.003815    0.989199    0.989199
 1038.8000       0.095    0.003815    0.003815    0.003815    0.989158    0.989158
 1039.4000       0.095    0.003815    0.003815    0.003815    0.989143    0.989143
 1040.0000       0.095    0.003815    0.003815    0.003815    0.989351    0.989351
 1040.6000       0.095    0.003816    0.003816    0.003816    0.989253    0.989253
 1041.2000       0.095    0.003815    0.003815    0.003815    0.989037    0.989037
 1041.8000       0.095    0.003813    0.003813    0.003813    0.988828    0.988828
 1042.4000       0.095    0.003813    0.003813    0.003813    0.988587    0.988587
 1043.0000       0.095    0.003816    0.003816    0.003816    0.988325    0.988325
 1043.6000       0.096    0.003823    0.003823    0.003823    0.988057    0.988057
 1044.2000       0.096    0.003823    0.003823    0.003823    0.987793    0.987793
 1044.8000       0.095    0.003803    0.003803    0.003803    0.987547    0.987547
 1045.4000       0.094    0.003766    0.003766    0.003766    0.987331    0.987331
 1046.0000       0.093    0.003731    0.003731    0.003731    0.987156    0.987156
 1046.6000       0.093    0.003715    0.003715    0.003715    0.986949    0.986949
 1047.2000       0.093    0.003717    0.003717    0.003717    0.987211    0.987211
 1047.8000       0.093    0.003724    0.003724    0.003724    0.987275    0.987275
 1048.4000       0.093    0.003727    0.003727    0.003727    0.986974    0.986974
 1049.0000       0.093    0.003725    0.003725    0.003725     0.98637     0.98637
 1049.6000       0.093    0.003724    0.003724    0.003724    0.985712    0.985712
 1050.2000       0.093    0.003724    0.003724    0.003724    0.985177    0.985177
 1050.8000       0.093    0.003723    0.003723    0.003723     0.98491     0.98491
 1051.4000       0.093    0.003730    0.003730    0.003730    0.985194    0.985194
 1052.0000       0.093    0.003691    0.003691    0.003691    0.985717    0.985717
 1052.6000       0.093    0.003939    0.003939    0.003939    0.984961    0.984961
 1053.2000       0.093    0.004079    0.004079    0.004079    0.984314    0.984314
 1053.8000       0.093    0.004063    0.004063    0.004063    0.983509    0.983509
 1054.4000       0.093    0.004049    0.004049    0.004049    0.982594    0.982594
 1055.0000       0.092    0.004011    0.004011    0.004011    0.981623    0.981623
 1055.6000       0.091    0.003970    0.003970    0.003970    0.980645    0.980645
 1056.2000       0.091    0.003948    0.003948    0.003948    0.979712    0.979712
 1056.8000       0.091    0.003947    0.003947    0.003947    0.978415    0.978415
 1057.4000       0.091    0.003954    0.003954    0.003954    0.976513    0.976513
 1058.0000       0.091    0.003958    0.003958    0.003958    0.975756    0.975756
 1058.6000       0.091    0.003957    0.003957    0.003957    0.975261    0.975261
 1059.2000       0.091    0.003955    0.003955    0.003955    0.974219    0.974219
 1059.8000       0.091    0.003960    0.003960    0.003960    0.973049    0.973049
 1060.4000       0.091    0.003929    0.003929    0.003929    0.972756    0.972756
 1061.0000       0.091    0.004137    0.004137    0.004137    0.972972    0.972972
 1061.6000       0.091    0.004372    0.004372    0.004372    0.972561    0.972561
 1062.2000       0.091    0.004333    0.004333    0.004333    0.970528    0.970528
 1062.8000       0.091    0.004347    0.004347    0.004347    0.969052    0.969052
 1063.4000       0.091    0.004352    0.004352    0.004352    0.967424    0.967424
 1064.0000       0.091    0.004341    0.004341    0.004341    0.965864    0.965864
 1064.6000       0.090    0.004304    0.004304    0.004304    0.964593    0.964593
 1065.2000       0.089    0.004258    0.004258    0.004258    0.963833    0.963833
 1065.8000       0.088    0.004226    0.004226    0.004226    0.964905    0.964905
 1066.4000       0.088    0.004221    0.004221    0.004221    0.967145    0.967145
 1067.0000       0.089    0.004229    0.004229    0.004229     0.96722     0.96722
 1067.6000       0.089    0.004235    0.004235    0.004235    0.966719    0.966719
 1068.2000       0.089    0.004235    0.004235    0.004235    0.966765    0.966765
 1068.8000       0.089    0.004232    0.004232    0.004232    0.967104    0.967104
 1069.4000       0.089    0.004231    0.004231    0.004231    0.967751    0.967751
 1070.0000       0.089    0.004232    0.004232    0.004232    0.968868    0.968868
 1070.6000       0.089    0.004232    0.004232    0.004232    0.969984    0.969984
 1071.2000       0.089    0.004232    0.004232    0.004232    0.970854    0.970854
 1071.8000       0.089    0.004232    0.004232    0.004232     0.97266     0.97266
 1072.4000       0.089    0.004232    0.004232    0.004232    0.975273    0.975273
 1073.0000       0.089    0.004232    0.004232    0.004232    0.975992    0.975992
 1073.6000       0.089    0.004232    0.004232    0.004232    0.974468    0.974468
 1074.2000       0.089    0.004233    0.004233    0.004233    0.972784    0.972784
 1074.8000       0.089    0.004233    0.004233    0.004233    0.972894    0.972894