Version =  1.00
NumCams = 1
Cam     Date       Time        Roll     Pitch       Yaw
---  ----------  --------  --------  --------  --------
1936876886  538976288/538976288/538976288  538976288:808333600:1952671088  27604928905478602064189061233358119503952990063191363683293024013752038534946412783449211878110946359290265447995255147820649797911349890538391594505137953437459937023030225538212701227517097428739142466007457973988477752421881971998720.00      0.00      0.00
-------------------------------------------------------
Extinction Fit: Multi-Day = 2
Extinction Coef Scale     = 2.094202
Extinction Coef Rayleigh  = -0.000000
Extinction Coef Oxygen2   = -0.000000
Extinction Coef Ozone     = 4.780663
Extinction Coef Dust      = 104.464105
Extinction Coef Water     = -0.000000
-------------------------------------------------------
Number of wavelengths      = 501
Responsivity normalization = 401890959920.327026
-------------------------------------------------------
Wave(nm)    WeightSum   DayResp     CumResp     SmoothResp  DayExtn     CumExtn
  350.0000       7.207   -0.000000    1.490545    0.000000    0.000056    0.472260
  350.6000       7.397    0.000000   -0.612090    0.000000    0.000056    0.474172
  351.2000       7.409   -0.000000   -0.626419    0.000000    0.000056    0.476075
  351.8000       7.757   -0.000000    0.600847    0.000000    0.000056    0.477979
  352.4000       7.922    0.000000    1.071517    0.000000    0.000056    0.479863
  353.0000       8.741    0.000000   -0.101690    0.000000    0.000056    0.481747
  353.6000       8.044   -0.000000    0.082280    0.000000    0.000056    0.483613
  354.2000       8.218    0.000000    0.408620    0.000000    0.000056    0.485479
  354.8000       8.046    0.000000   -0.077557    0.000000    0.000056    0.487325
  355.4000       8.219    0.000000   -0.132984    0.000000    0.000056    0.489172
  356.0000       8.219    0.000000   -0.078733    0.000000    0.000056    0.491000
  356.6000       8.430   -0.000000   -0.179802    0.000000    0.000056    0.492829
  357.2000       9.246    0.000000   -1.530281    0.000000    0.000056    0.494647
  357.8000       8.749   -0.000000   -2.224102    0.000000    0.000056    0.496447
  358.4000       9.421   -0.000000   -1.612302    0.000000    0.000056    0.498247
  359.0000       9.931    0.000000   -0.367547    0.000000    0.000056    0.500038
  359.6000       9.602    0.000000   -1.088743    0.000000    0.000056    0.501810
  360.2000      10.045    0.000000   -1.012994    0.000000    0.000056    0.503582
  360.8000       9.668   -0.000000   -0.952911    0.000000    0.000056    0.505344
  361.4000       9.706   -0.000000   -0.381132    0.000000    0.000056    0.507088
  362.0000      10.219    0.000000    0.031903    0.000000    0.000056    0.508832
  362.6000      10.601    0.000000   -0.334727    0.000000    0.000056    0.510566
  363.2000      10.616    0.000000   -0.346109    0.000000    0.000056    0.512291
  363.8000      10.446   -0.000000    0.399539    0.000000    0.000056    0.514007
  364.4000      10.614   -0.000000    0.433768    0.000000    0.000056    0.515713
  365.0000      10.399    0.000000    0.143537    0.000000    0.000056    0.517410
  365.6000      10.665    0.000000    0.165991    0.000000    0.000056    0.519097
  366.2000      10.815    0.000000    0.239650    0.000000    0.000056    0.520785
  366.8000      11.634   -0.000000    0.125275    0.000000    0.000056    0.522454
  367.4000      11.748   -0.000000   -0.087217    0.000000    0.000056    0.524113
  368.0000      11.917    0.000000    0.076872    0.000000    0.000056    0.525772
  368.6000      11.154    0.000000    0.532713    0.000000    0.000056    0.527413
  369.2000      11.326   -0.000000    0.001722    0.000000    0.000056    0.529054
  369.8000      12.369   -0.000000   -0.313773    0.000000    0.000056    0.530675
  370.4000      11.835    0.000000   -0.009428    0.000000    0.000056    0.532297
  371.0000      11.497    0.000000    0.075737    0.000000    0.000056    0.533910
  371.6000      12.295    0.000000    0.268640    0.000000    0.000056    0.535513
  372.2000      12.120   -0.000000    0.643944    0.000000    0.000056    0.537107
  372.8000      11.891   -0.000000    0.446814    0.000000    0.000056    0.538691
  373.4000      11.901    0.000000    0.371453    0.000000    0.000056    0.540266
  374.0000      12.028   -0.000000   -0.575630    0.000000    0.000056    0.541832
  374.6000      12.239   -0.000000   -0.206599    0.000000    0.000056    0.543397
  375.2000      12.421   -0.000000   -0.243317    0.000000    0.000056    0.544944
  375.8000      12.426    0.000000    0.304134    0.000000    0.000056    0.546491
  376.4000      13.082    0.000000    0.397520    0.000000    0.000056    0.548019
  377.0000      12.967   -0.000000    0.169437    0.000000    0.000056    0.549547
  377.6000      13.480    0.000000    0.185446    0.000000    0.000056    0.551066
  378.2000      13.277   -0.000000    0.274167    0.000000    0.000056    0.552575
  378.8000      13.495   -0.000000   -0.328979    0.002440    0.000056    0.554075
  379.4000      13.526    0.000000   -0.823155    0.006700    0.000056    0.555575
  380.0000      13.691   -0.000000   -0.702559    0.011010    0.000056    0.557057
  380.6000      13.916    0.000000   -0.568853    0.015368    0.000056    0.558538
  381.2000      14.081    0.000000   -0.569686    0.019773    0.000056    0.560010
  381.8000      13.840    0.000000   -0.392765    0.024221    0.000056    0.561472
  382.4000      14.081    0.002653   -0.404963    0.028713    0.685940    0.790526
  383.0000      14.315    0.011838   -0.088448    0.033245    0.686852    0.781547
  383.6000      14.745    0.020979    0.131156    0.037816    0.687762    0.784195
  384.2000      14.190    0.030074    0.296116    0.042424    0.688670    0.792404
  384.8000      14.349    0.039118   -0.104480    0.047066    0.689576    0.793839
  385.4000      15.025    0.048111   -0.102410    0.051741    0.690481    0.774115
  386.0000      14.523    0.057047    0.101530    0.056446    0.691383    0.782523
  386.6000      14.573    0.065923   -0.336535    0.061178    0.692283    0.795668
  387.2000      15.001    0.074738   -0.152491    0.065936    0.693181    0.795353
  387.8000      14.683    0.083486    0.097390    0.070717    0.694077    0.763535
  388.4000      14.781    0.092168   -0.023520    0.075518    0.694971    0.773792
  389.0000      15.685    0.100776   -0.211063    0.080338    0.695863    0.802395
  389.6000      15.347    0.109310   -0.406149    0.085173    0.696753    0.787442
  390.2000      16.019    0.117767   -0.168903    0.090021    0.697642    0.773228
  390.8000      16.020    0.126145    0.174392    0.094879    0.698528    0.763710
  391.4000      16.241    0.134438    0.214050    0.099746    0.699412    0.757452
  392.0000      16.138    0.142646    0.329289    0.104617    0.700294    0.755217
  392.6000      16.296    0.150764    0.505457    0.109492    0.701174    0.766178
  393.2000      16.951    0.158792    0.498367    0.114367    0.702052    0.781580
  393.8000      16.879    0.166726    0.618109    0.119239    0.702929    0.776489
  394.4000      16.996    0.174563    0.230979    0.124107    0.703803    0.754042
  395.0000      15.896    0.182305    0.081204    0.128968    0.704675    0.721665
  395.6000      16.765    0.189945    0.209466    0.133820    0.705545    0.752510
  396.2000      15.923    0.197482    0.343763    0.138660    0.706413    0.788685
  396.8000      16.996    0.204916    0.059294    0.143485    0.707279    0.762700
  397.4000      17.355    0.212245    0.067444    0.148295    0.708144    0.769554
  398.0000      17.888    0.219466    0.311925    0.153086    0.709006    0.776639
  398.6000      18.062    0.226581    0.364544    0.157856    0.709866    0.763075
  399.2000      18.158    0.233585    0.141144    0.162605    0.710724    0.744470
  399.8000      17.890    0.240480    0.186652    0.167329    0.711580    0.726033
  400.4000      18.159    0.247264    0.131698    0.172027    0.712434    0.740562
  401.0000      18.771    0.253937    0.104897    0.176698    0.713286    0.712413
  401.6000      17.949    0.260497    0.289548    0.181339    0.714136    0.730138
  402.2000      31.047    0.266946    0.462612    0.185950    0.714985    0.725499
  402.8000      30.748    0.273283    0.824681    0.190529    0.715831    0.747719
  403.4000      30.975    0.279509    0.855696    0.195075    0.716675    0.731705
  404.0000      31.378    0.285624    0.439601    0.199587    0.717517    0.733217
  404.6000      31.260    0.291627    0.151718    0.204063    0.718357    0.734236
  405.2000      31.156    0.297520    0.023793    0.208504    0.719195    0.727799
  405.8000      31.947    0.303305    0.126470    0.212908    0.720031    0.731341
  406.4000      31.924    0.308981    0.117006    0.217274    0.720864    0.728832
  407.0000      31.911    0.314552    0.151715    0.221603    0.721696    0.684439
  407.6000      32.266    0.320017    0.291885    0.225894    0.722526    0.729174
  408.2000      32.566    0.325378    0.177869    0.230147    0.723354    0.686471
  408.8000      32.520    0.330638    0.246963    0.234361    0.724180    0.710591
  409.4000      32.229    0.335797    0.329710    0.238536    0.725004    0.710998
  410.0000      32.928    0.340858    0.204132    0.242674    0.725825    0.737988
  410.6000      33.038    0.345822    0.246213    0.246773    0.726645    0.768227
  411.2000      33.395    0.350694    0.290491    0.250834    0.727462    0.759312
  411.8000      33.007    0.355474    0.243258    0.254859    0.728278    0.716796
  412.4000      34.063    0.360165    0.379142    0.258846    0.729092    0.728481
  413.0000      34.097    0.364770    0.334490    0.262797    0.729903    0.745072
  413.6000      33.991    0.369290    0.352317    0.266712    0.730712    0.766112
  414.2000      33.884    0.373730    0.303062    0.270593    0.731520    0.728173
  414.8000      34.038    0.378091    0.338959    0.274440    0.732325    0.755036
  415.4000      34.556    0.382376    0.301655    0.278254    0.733128    0.774020
  416.0000      34.913    0.386588    0.266031    0.282035    0.733929    0.772502
  416.6000      34.969    0.390730    0.266815    0.285786    0.734728    0.737587
  417.2000      34.621    0.394805    0.347627    0.289507    0.735525    0.768907
  417.8000      34.791    0.398815    0.337477    0.293198    0.736320    0.739819
  418.4000      35.194    0.402763    0.242423    0.296862    0.737113    0.738438
  419.0000      35.919    0.406651    0.156444    0.300500    0.737903    0.730899
  419.6000      35.719    0.410485    0.066306    0.304111    0.738692    0.755313
  420.2000      35.785    0.414265    0.144305    0.307699    0.739478    0.759064
  420.8000      36.076    0.417995    0.218445    0.311263    0.740263    0.770017
  421.4000      35.902    0.421675    0.252784    0.314806    0.741045    0.746336
  422.0000      36.062    0.425311    0.361957    0.318328    0.741825    0.766829
  422.6000      35.962    0.428904    0.368050    0.321831    0.742603    0.698670
  423.2000      36.193    0.432457    0.297428    0.325315    0.743379    0.724604
  423.8000      36.929    0.435973    0.328170    0.328783    0.744153    0.741775
  424.4000      36.890    0.439453    0.253216    0.332234    0.744924    0.756867
  425.0000      37.353    0.442899    0.326167    0.335671    0.745694    0.731004
  425.6000      37.230    0.446314    0.375936    0.339094    0.746461    0.733879
  426.2000      37.446    0.449700    0.369012    0.342504    0.747226    0.722857
  426.8000      38.043    0.453060    0.401962    0.345903    0.747989    0.757816
  427.4000      38.542    0.456394    0.416473    0.349291    0.748750    0.752598
  428.0000      38.157    0.459705    0.392276    0.352670    0.749509    0.780653
  428.6000      38.472    0.462995    0.462254    0.356040    0.750265    0.783822
  429.2000      38.755    0.466266    0.377820    0.359402    0.751020    0.750162
  429.8000      38.132    0.469518    0.266751    0.362756    0.751772    0.748543
  430.4000      38.479    0.472754    0.221488    0.366105    0.752522    0.762556
  431.0000      38.351    0.475973    0.291047    0.369448    0.753269    0.750249
  431.6000      38.892    0.479179    0.375373    0.372786    0.754015    0.755130
  432.2000      38.990    0.482371    0.371555    0.376120    0.754758    0.722913
  432.8000      38.746    0.485552    0.357027    0.379449    0.755499    0.694003
  433.4000      39.280    0.488722    0.342402    0.382776    0.756238    0.743703
  434.0000      39.700    0.491881    0.367605    0.386100    0.756975    0.743034
  434.6000      39.090    0.495031    0.423313    0.389422    0.757709    0.756669
  435.2000      39.974    0.498173    0.438147    0.392742    0.758441    0.775317
  435.8000      40.211    0.501307    0.450892    0.396060    0.759171    0.736607
  436.4000      40.187    0.504434    0.428190    0.399377    0.759899    0.738354
  437.0000      40.403    0.507554    0.378499    0.402692    0.760624    0.765929
  437.6000      40.490    0.510666    0.384372    0.406007    0.761347    0.699738
  438.2000      41.005    0.513774    0.416695    0.409321    0.762068    0.731885
  438.8000      41.114    0.516875    0.422607    0.412635    0.762786    0.737923
  439.4000      40.662    0.519971    0.469125    0.415948    0.763502    0.759813
  440.0000      41.501    0.523062    0.421607    0.419260    0.764216    0.754352
  440.6000      41.552    0.526147    0.457028    0.422572    0.764927    0.735023
  441.2000      41.379    0.529228    0.431235    0.425883    0.765636    0.774119
  441.8000      41.248    0.532302    0.403071    0.429194    0.766343    0.733306
  442.4000      40.838    0.535372    0.433976    0.432505    0.767048    0.745292
  443.0000      41.765    0.538437    0.448322    0.435814    0.767750    0.774657
  443.6000      42.063    0.541497    0.420072    0.439123    0.768449    0.749202
  444.2000      42.168    0.544550    0.457452    0.442431    0.769146    0.788808
  444.8000      42.141    0.547600    0.445736    0.445737    0.769841    0.771770
  445.4000      42.689    0.550643    0.444974    0.449042    0.770534    0.764761
  446.0000      43.101    0.553680    0.472683    0.452346    0.771224    0.748566
  446.6000      43.385    0.556711    0.496657    0.455648    0.771911    0.749094
  447.2000      43.314    0.559735    0.510665    0.458949    0.772596    0.757050
  447.8000      43.420    0.562755    0.484775    0.462247    0.773279    0.774960
  448.4000      44.157    0.565766    0.437999    0.465543    0.773959    0.770881
  449.0000      44.079    0.568771    0.397095    0.468836    0.774637    0.770537
  449.6000      43.985    0.571770    0.458784    0.472126    0.775312    0.762760
  450.2000      44.375    0.574760    0.525783    0.475414    0.775985    0.780231
  450.8000      44.713    0.577742    0.491158    0.478698    0.776655    0.748850
  451.4000      44.940    0.580717    0.490596    0.481978    0.777323    0.766137
  452.0000      45.211    0.583684    0.472168    0.485255    0.777988    0.757904
  452.6000      45.067    0.586642    0.451390    0.488528    0.778650    0.752989
  453.2000      45.303    0.589592    0.471771    0.491797    0.779310    0.734922
  453.8000      45.952    0.592532    0.488240    0.495062    0.779968    0.756423
  454.4000      46.175    0.595464    0.466056    0.498322    0.780622    0.783963
  455.0000      46.427    0.598387    0.492539    0.501577    0.781274    0.757861
  455.6000      46.695    0.601300    0.546154    0.504827    0.781924    0.754216
  456.2000      47.206    0.604204    0.558747    0.508072    0.782571    0.766417
  456.8000      47.321    0.607097    0.524842    0.511312    0.783215    0.780492
  457.4000      47.306    0.609981    0.491718    0.514546    0.783856    0.785669
  458.0000      47.792    0.612856    0.476134    0.517775    0.784495    0.772790
  458.6000      48.035    0.615719    0.498684    0.520997    0.785131    0.772985
  459.2000      48.041    0.618572    0.474892    0.524215    0.785765    0.790701
  459.8000      48.136    0.621416    0.483414    0.527426    0.786395    0.762737
  460.4000      48.269    0.624249    0.540921    0.530631    0.787023    0.772699
  461.0000      48.378    0.627071    0.570727    0.533830    0.787648    0.730475
  461.6000      48.820    0.629883    0.573047    0.537022    0.788270    0.756989
  462.2000      48.851    0.632684    0.536913    0.540209    0.788889    0.764880
  462.8000      48.688    0.635475    0.535940    0.543389    0.789506    0.744980
  463.4000      49.339    0.638256    0.548677    0.546563    0.790120    0.736182
  464.0000      49.459    0.641026    0.552041    0.549730    0.790730    0.752519
  464.6000      49.680    0.643785    0.579716    0.552891    0.791338    0.770475
  465.2000      49.839    0.646534    0.599043    0.556046    0.791943    0.783572
  465.8000      49.809    0.649273    0.621138    0.559194    0.792545    0.755541
  466.4000      49.651    0.652001    0.598342    0.562336    0.793144    0.767814
  467.0000      49.940    0.654719    0.570000    0.565472    0.793740    0.760163
  467.6000      49.973    0.657428    0.575422    0.568602    0.794333    0.753523
  468.2000      50.068    0.660126    0.582486    0.571725    0.794923    0.798133
  468.8000      50.369    0.662814    0.583648    0.574843    0.795510    0.806165
  469.4000      50.678    0.665494    0.589355    0.577954    0.796094    0.771876
  470.0000      50.854    0.668163    0.613798    0.581060    0.796675    0.777842
  470.6000      51.047    0.670822    0.667216    0.584160    0.797253    0.769649
  471.2000      51.239    0.673473    0.626620    0.587254    0.797827    0.767577
  471.8000      51.477    0.676114    0.548206    0.590343    0.798399    0.762120
  472.4000      51.551    0.678747    0.583855    0.593426    0.798967    0.764911
  473.0000      51.631    0.681371    0.624961    0.596504    0.799532    0.798759
  473.6000      51.940    0.683986    0.593383    0.599576    0.800093    0.777470
  474.2000      51.689    0.686593    0.601136    0.602644    0.800652    0.766692
  474.8000      51.779    0.689192    0.628441    0.605706    0.801207    0.794570
  475.4000      52.135    0.691782    0.607429    0.608764    0.801759    0.767578
  476.0000      52.230    0.694364    0.586983    0.611818    0.802307    0.748842
  476.6000      51.737    0.696940    0.606884    0.614866    0.802852    0.773502
  477.2000      52.295    0.699507    0.625258    0.617911    0.803394    0.779823
  477.8000      52.241    0.702067    0.598484    0.620951    0.803932    0.774750
  478.4000      52.514    0.704620    0.594063    0.623987    0.804466    0.781976
  479.0000      52.462    0.707166    0.651341    0.627019    0.804998    0.766815
  479.6000      52.735    0.709705    0.676804    0.630047    0.805525    0.738642
  480.2000      52.789    0.712237    0.673819    0.633072    0.806049    0.777568
  480.8000      52.893    0.714762    0.640527    0.636093    0.806570    0.737231
  481.4000      53.423    0.717281    0.571310    0.639110    0.807087    0.711640
  482.0000      53.672    0.719793    0.595653    0.642124    0.807600    0.729684
  482.6000      53.914    0.722299    0.621850    0.645135    0.808109    0.752951
  483.2000      53.972    0.724799    0.628195    0.648142    0.808615    0.791013
  483.8000      53.941    0.727293    0.627393    0.651146    0.809117    0.756278
  484.4000      53.883    0.729781    0.653930    0.654148    0.809615    0.715063
  485.0000      54.137    0.732262    0.642104    0.657146    0.810109    0.776565
  485.6000      54.315    0.734737    0.617850    0.660141    0.810600    0.769908
  486.2000      54.366    0.737206    0.648364    0.663133    0.811086    0.779591
  486.8000      53.603    0.739670    0.692362    0.666123    0.811569    0.751598
  487.4000      54.612    0.742127    0.701892    0.669109    0.812048    0.789792
  488.0000      54.640    0.744578    0.701865    0.672092    0.812522    0.791687
  488.6000      54.797    0.747023    0.717027    0.675073    0.812993    0.801466
  489.2000      54.922    0.749462    0.693006    0.678051    0.813459    0.785745
  489.8000      54.992    0.751894    0.672596    0.681025    0.813922    0.801422
  490.4000      55.460    0.754320    0.668978    0.683997    0.814380    0.787197
  491.0000      55.681    0.756740    0.654922    0.686965    0.814834    0.771949
  491.6000      55.619    0.759153    0.674497    0.689930    0.815283    0.813188
  492.2000      55.586    0.761558    0.669580    0.692892    0.815729    0.793990
  492.8000      55.527    0.763958    0.667507    0.695850    0.816170    0.759797
  493.4000      55.681    0.766349    0.682161    0.698805    0.816606    0.789774
  494.0000      55.454    0.768733    0.691132    0.701756    0.817039    0.764138
  494.6000      55.716    0.771110    0.695355    0.704704    0.817466    0.744188
  495.2000      55.075    0.773479    0.691942    0.707647    0.817889    0.787964
  495.8000      55.664    0.775839    0.685041    0.710586    0.818308    0.809427
  496.4000      55.811    0.778191    0.708827    0.713521    0.818722    0.765480
  497.0000      55.811    0.780535    0.707481    0.716451    0.819131    0.801261
  497.6000      55.998    0.782869    0.718225    0.719376    0.819536    0.790003
  498.2000      55.839    0.785195    0.730608    0.722296    0.819936    0.786581
  498.8000      56.076    0.787510    0.725267    0.725211    0.820331    0.778923
  499.4000      56.010    0.789815    0.734103    0.728121    0.820721    0.822816
  500.0000      56.060    0.792110    0.757082    0.731024    0.821106    0.813150
  500.6000      56.251    0.794395    0.776553    0.733922    0.821487    0.814623
  501.2000      56.330    0.796668    0.770842    0.736813    0.821862    0.828488
  501.8000      56.483    0.798929    0.772988    0.739698    0.822232    0.815547
  502.4000      56.599    0.801178    0.776117    0.742575    0.822597    0.798769
  503.0000      56.599    0.803416    0.782001    0.745446    0.822957    0.842618
  503.6000      56.515    0.805640    0.787025    0.748308    0.823312    0.821664
  504.2000      56.613    0.807851    0.778461    0.751163    0.823662    0.796170
  504.8000      56.772    0.810048    0.781262    0.754010    0.824006    0.787587
  505.4000      56.989    0.812233    0.750547    0.756848    0.824345    0.805497
  506.0000      57.054    0.814401    0.740776    0.759677    0.824678    0.740614
  506.6000      57.054    0.816554    0.745886    0.762496    0.825006    0.749276
  507.2000      56.864    0.818692    0.753132    0.765306    0.825328    0.764845
  507.8000      56.764    0.820814    0.811921    0.768106    0.825645    0.812806
  508.4000      56.830    0.822920    0.826053    0.770895    0.825956    0.833190
  509.0000      57.055    0.825008    0.799636    0.773674    0.826261    0.807476
  509.6000      57.089    0.827079    0.781765    0.776441    0.826561    0.789846
  510.2000      57.184    0.829131    0.781700    0.779196    0.826855    0.797023
  510.8000      57.184    0.831165    0.784608    0.781940    0.827143    0.833973
  511.4000      57.089    0.833180    0.766719    0.784671    0.827424    0.832300
  512.0000      57.024    0.835176    0.771740    0.787389    0.827700    0.799492
  512.6000      56.881    0.837150    0.764975    0.790095    0.827970    0.801596
  513.2000      56.734    0.839105    0.767163    0.792786    0.828234    0.816812
  513.8000      56.961    0.841038    0.769283    0.795463    0.828491    0.797572
  514.4000      57.317    0.842949    0.775756    0.798126    0.828743    0.829875
  515.0000      57.218    0.844839    0.758885    0.800775    0.828988    0.795426
  515.6000      57.076    0.846705    0.754346    0.803407    0.829226    0.781100
  516.2000      57.061    0.848549    0.750341    0.806025    0.829459    0.802411
  516.8000      57.543    0.850369    0.794467    0.808626    0.829684    0.799801
  517.4000      57.450    0.852164    0.849343    0.811211    0.829904    0.839797
  518.0000      57.578    0.853934    0.890817    0.813779    0.830116    0.807082
  518.6000      57.672    0.855679    0.884326    0.816329    0.830322    0.808786
  519.2000      57.512    0.857399    0.843076    0.818862    0.830521    0.826727
  519.8000      57.794    0.859092    0.823064    0.821377    0.830714    0.807426
  520.4000      57.541    0.860759    0.830370    0.823874    0.830900    0.790377
  521.0000      57.734    0.862399    0.819794    0.826352    0.831078    0.791085
  521.6000      57.666    0.864011    0.848287    0.828811    0.831250    0.837550
  522.2000      57.869    0.865594    0.848958    0.831250    0.831415    0.792551
  522.8000      57.661    0.867150    0.838763    0.833670    0.831573    0.791403
  523.4000      57.874    0.868676    0.870568    0.836070    0.831724    0.846031
  524.0000      58.170    0.870173    0.838310    0.838449    0.831868    0.829103
  524.6000      58.301    0.871641    0.813508    0.840807    0.832004    0.812717
  525.2000      58.301    0.873078    0.838851    0.843144    0.832133    0.814815
  525.8000      58.267    0.874486    0.854617    0.845460    0.832255    0.812002
  526.4000      58.341    0.875862    0.898872    0.847754    0.832370    0.807633
  527.0000      58.204    0.877206    0.930238    0.850026    0.832477    0.836852
  527.6000      58.298    0.878521    0.924529    0.852276    0.832577    0.840549
  528.2000      58.155    0.879803    0.920281    0.854503    0.832669    0.811703
  528.8000      58.458    0.881052    0.882204    0.856708    0.832754    0.805516
  529.4000      58.645    0.882270    0.847388    0.858890    0.832832    0.766126
  530.0000      58.645    0.883455    0.848877    0.861049    0.832902    0.779240
  530.6000      58.523    0.884608    0.841119    0.863185    0.832964    0.794721
  531.2000      58.480    0.885728    0.855799    0.865297    0.833019    0.803787
  531.8000      58.357    0.886814    0.870290    0.867385    0.833066    0.807503
  532.4000      58.421    0.887867    0.903233    0.869450    0.833105    0.858911
  533.0000      58.992    0.888888    0.944119    0.871491    0.833137    0.817578
  533.6000      58.943    0.889874    0.899036    0.873508    0.833161    0.796974
  534.2000      59.447    0.890828    0.916607    0.875501    0.833177    0.782357
  534.8000      59.433    0.891749    0.912617    0.877471    0.833186    0.823424
  535.4000      59.793    0.892635    0.885664    0.879415    0.833187    0.811769
  536.0000      60.065    0.893488    0.883155    0.881336    0.833181    0.811104
  536.6000      60.333    0.894308    0.898738    0.883233    0.833166    0.838888
  537.2000      60.614    0.895094    0.890999    0.885106    0.833144    0.812677
  537.8000      61.102    0.895847    0.902650    0.886954    0.833115    0.818332
  538.4000      61.353    0.896568    0.881110    0.888779    0.833078    0.802024
  539.0000      61.481    0.897255    0.873243    0.890580    0.833033    0.812383
  539.6000      61.640    0.897910    0.892781    0.892357    0.832981    0.810772
  540.2000      61.673    0.898532    0.910469    0.894110    0.832921    0.811648
  540.8000      62.191    0.899123    0.923821    0.895840    0.832854    0.820926
  541.4000      62.541    0.899681    0.928362    0.897546    0.832779    0.811911
  542.0000      62.842    0.900208    0.951907    0.899229    0.832697    0.818304
  542.6000      63.053    0.900703    0.962532    0.900889    0.832608    0.843215
  543.2000      64.058    0.901169    0.930715    0.902527    0.832512    0.823699
  543.8000      64.340    0.901603    0.894451    0.904142    0.832409    0.792784
  544.4000      64.448    0.902007    0.873903    0.905734    0.832298    0.809341
  545.0000      64.287    0.902382    0.911114    0.907305    0.832181    0.825141
  545.6000      64.460    0.902729    0.890707    0.908854    0.832057    0.832510
  546.2000      64.592    0.903047    0.885726    0.910382    0.831927    0.817279
  546.8000      64.925    0.903337    0.909637    0.911888    0.831790    0.822412
  547.4000      65.212    0.903600    0.927974    0.913374    0.831646    0.820905
  548.0000      64.974    0.903836    0.944984    0.914840    0.831497    0.815782
  548.6000      64.982    0.904047    0.953839    0.916285    0.831341    0.825371
  549.2000      65.203    0.904233    0.950119    0.917711    0.831180    0.829704
  549.8000      65.550    0.904394    0.926584    0.919118    0.831013    0.827779
  550.4000      65.550    0.904531    0.909634    0.920506    0.830841    0.828481
  551.0000      65.456    0.904646    0.956998    0.921876    0.830664    0.843473
  551.6000      65.794    0.904739    0.952779    0.923228    0.830481    0.851035
  552.2000      65.841    0.904809    0.977087    0.924562    0.830294    0.814371
  552.8000      65.951    0.904861    0.973754    0.925879    0.830102    0.806077
  553.4000      65.738    0.904893    0.952940    0.927180    0.829906    0.823407
  554.0000      66.015    0.904905    0.971521    0.928465    0.829707    0.841212
  554.6000      65.547    0.904901    0.948446    0.929734    0.829503    0.804940
  555.2000      66.254    0.904880    0.890801    0.930987    0.829297    0.797414
  555.8000      66.189    0.904844    0.898854    0.932226    0.829087    0.797647
  556.4000      65.906    0.904792    0.910752    0.933451    0.828875    0.824912
  557.0000      66.427    0.904727    0.939429    0.934662    0.828660    0.826381
  557.6000      66.427    0.904649    0.939063    0.935859    0.828444    0.823150
  558.2000      66.344    0.904560    0.930339    0.937044    0.828226    0.809769
  558.8000      66.535    0.904461    0.923546    0.938216    0.828007    0.820729
  559.4000      66.535    0.904351    0.973402    0.939375    0.827787    0.851480
  560.0000      66.582    0.904234    0.972861    0.940524    0.827567    0.841090
  560.6000      66.947    0.904109    0.947267    0.941661    0.827347    0.794167
  561.2000      66.947    0.903979    0.950722    0.942787    0.827128    0.829082
  561.8000      67.005    0.903843    0.957952    0.943903    0.826910    0.828491
  562.4000      66.896    0.903702    0.944580    0.945008    0.826693    0.844607
  563.0000      67.070    0.903559    0.945363    0.946104    0.826479    0.828841
  563.6000      67.070    0.903415    0.969137    0.947191    0.826267    0.829747
  564.2000      67.235    0.903270    0.972992    0.948269    0.826058    0.803338
  564.8000      67.282    0.903127    0.958132    0.949338    0.825853    0.821774
  565.4000      67.399    0.902984    0.970782    0.950398    0.825652    0.819925
  566.0000      67.399    0.902844    0.978754    0.951450    0.825456    0.805688
  566.6000      67.564    0.902708    0.972061    0.952494    0.825265    0.805503
  567.2000      67.391    0.902576    0.938247    0.953531    0.825080    0.797042
  567.8000      67.512    0.902451    0.928749    0.954560    0.824902    0.822024
  568.4000      67.851    0.902334    0.952782    0.955581    0.824731    0.799433
  569.0000      67.724    0.902225    0.963325    0.956596    0.824568    0.825017
  569.6000      67.724    0.902124    0.958292    0.957603    0.824413    0.831877
  570.2000      67.629    0.902034    0.944405    0.958603    0.824267    0.830377
  570.8000      67.485    0.901955    0.962504    0.959596    0.824130    0.822921
  571.4000      67.365    0.901889    0.991897    0.960582    0.824004    0.839251
  572.0000      67.672    0.901836    0.956837    0.961561    0.823889    0.834978
  572.6000      67.672    0.901797    0.942007    0.962533    0.823785    0.836318
  573.2000      67.502    0.901773    0.941250    0.963498    0.823694    0.817666
  573.8000      67.672    0.901765    0.912671    0.964456    0.823615    0.807214
  574.4000      67.578    0.901774    0.920582    0.965407    0.823550    0.828035
  575.0000      67.607    0.901801    0.951948    0.966351    0.823499    0.824247
  575.6000      67.724    0.901847    0.951630    0.967287    0.823463    0.820620
  576.2000      67.672    0.901912    0.955863    0.968215    0.823442    0.822661
  576.8000      67.635    0.901997    0.947563    0.969136    0.823437    0.820886
  577.4000      68.175    0.902103    0.939916    0.970049    0.823448    0.826705
  578.0000      68.166    0.902230    0.966519    0.970953    0.823477    0.828040
  578.6000      68.275    0.902379    0.949817    0.971849    0.823524    0.799474
  579.2000      68.439    0.902551    0.937225    0.972736    0.823588    0.817821
  579.8000      68.504    0.902748    0.943444    0.973614    0.823672    0.794212
  580.4000      68.266    0.902966    0.950149    0.974482    0.823775    0.770134
  581.0000      68.504    0.903210    0.967343    0.975341    0.823898    0.810844
  581.6000      68.504    0.903478    0.970341    0.976190    0.824041    0.827238
  582.2000      68.504    0.903771    0.965639    0.977028    0.824205    0.831276
  582.8000      68.504    0.904090    0.996658    0.977856    0.824391    0.831144
  583.4000      68.340    0.904435    0.989487    0.978672    0.824598    0.832671
  584.0000      68.212    0.904805    0.974503    0.979478    0.824827    0.816566
  584.6000      68.237    0.905201    0.986484    0.980271    0.825079    0.813963
  585.2000      68.331    0.905624    0.960315    0.981052    0.825354    0.814359
  585.8000      68.331    0.906074    0.974638    0.981820    0.825652    0.815239
  586.4000      68.204    0.906549    1.010826    0.982576    0.825974    0.838304
  587.0000      68.204    0.907051    1.004876    0.983318    0.826319    0.819842
  587.6000      68.140    0.907581    1.058187    0.984046    0.826688    0.836723
  588.2000      67.811    0.908135    1.050662    0.984760    0.827082    0.851927
  588.8000      68.204    0.908717    0.992818    0.985460    0.827499    0.826367
  589.4000      68.109    0.909324    1.023172    0.986146    0.827942    0.823028
  590.0000      68.204    0.909958    1.060459    0.986816    0.828408    0.836323
  590.6000      67.960    0.910617    0.991157    0.987471    0.828900    0.838526
  591.2000      68.204    0.911302    1.008122    0.988110    0.829416    0.825309
  591.8000      68.204    0.912011    1.010394    0.988733    0.829957    0.835868
  592.4000      67.945    0.912745    1.014198    0.989340    0.830522    0.864974
  593.0000      68.204    0.913503    1.028055    0.989931    0.831112    0.831231
  593.6000      68.551    0.914284    1.046469    0.990505    0.831726    0.825360
  594.2000      68.724    0.915089    1.016556    0.991062    0.832364    0.820880
  594.8000      68.724    0.915916    1.026289    0.991602    0.833027    0.799885
  595.4000      68.898    0.916767    0.987669    0.992124    0.833714    0.815990
  596.0000      68.898    0.917637    1.015588    0.992630    0.834424    0.818370
  596.6000      69.071    0.918529    1.034422    0.993117    0.835157    0.822564
  597.2000      69.070    0.919441    1.010603    0.993588    0.835914    0.804881
  597.8000      69.079    0.920372    1.033736    0.994040    0.836694    0.811849
  598.4000      68.810    0.921321    1.031947    0.994475    0.837496    0.830257
  599.0000      68.812    0.922289    0.998667    0.994892    0.838320    0.829364
  599.6000      68.954    0.923274    0.976396    0.995292    0.839165    0.829310
  600.2000      68.943    0.924274    0.991193    0.995674    0.840032    0.854588
  600.8000      68.667    0.925291    1.014959    0.996038    0.840920    0.837249
  601.4000      68.897    0.926321    1.021286    0.996385    0.841828    0.838454
  602.0000      68.586    0.927366    1.044851    0.996714    0.842756    0.857806
  602.6000      68.897    0.928422    1.038115    0.997026    0.843703    0.847721
  603.2000      68.897    0.929491    1.026501    0.997320    0.844669    0.822669
  603.8000      68.897    0.930571    1.036281    0.997598    0.845653    0.829647
  604.4000      68.897    0.931660    1.005771    0.997859    0.846655    0.839320
  605.0000      68.768    0.932759    0.976500    0.998104    0.847674    0.810317
  605.6000      68.668    0.933866    0.999093    0.998332    0.848710    0.817642
  606.2000      68.732    0.934980    1.019835    0.998543    0.849761    0.847736
  606.8000      68.802    0.936100    1.001870    0.998740    0.850828    0.824374
  607.4000      68.394    0.937225    0.983244    0.998920    0.851910    0.807861
  608.0000      68.723    0.938355    0.969650    0.999085    0.853006    0.810887
  608.6000      68.366    0.939489    0.975477    0.999236    0.854115    0.802121
  609.2000      68.723    0.940624    0.962036    0.999371    0.855237    0.798440
  609.8000      68.426    0.941761    0.961680    0.999492    0.856372    0.808335
  610.4000      68.549    0.942898    0.994965    0.999600    0.857518    0.820575
  611.0000      68.376    0.944035    1.003083    0.999694    0.858676    0.821959
  611.6000      67.883    0.945170    0.968946    0.999774    0.859844    0.834066
  612.2000      68.376    0.946303    0.982450    0.999842    0.861022    0.827739
  612.8000      68.039    0.947433    0.994207    0.999897    0.862209    0.830947
  613.4000      68.203    0.948558    1.000853    0.999940    0.863404    0.849517
  614.0000      67.831    0.949679    1.001273    0.999971    0.864608    0.855140
  614.6000      67.654    0.950793    1.024218    0.999991    0.865820    0.848578
  615.2000      67.916    0.951901    1.034442    1.000000    0.867038    0.811162
  615.8000      67.908    0.953002    1.026476    0.999998    0.868262    0.844008
  616.4000      67.857    0.954093    1.002559    0.999986    0.869493    0.866114
  617.0000      67.783    0.955175    1.021585    0.999965    0.870729    0.872465
  617.6000      67.626    0.956247    1.023575    0.999934    0.871969    0.841630
  618.2000      67.856    0.957308    1.038405    0.999893    0.873214    0.844844
  618.8000      67.528    0.958356    1.036144    0.999844    0.874462    0.828015
  619.4000      67.842    0.959393    1.039587    0.999787    0.875713    0.843180
  620.0000      67.842    0.960416    1.045256    0.999722    0.876968    0.880917
  620.6000      67.625    0.961425    1.013410    0.999649    0.878224    0.868873
  621.2000      67.728    0.962419    0.985010    0.999569    0.879482    0.845009
  621.8000      67.841    0.963398    1.027142    0.999482    0.880742    0.842461
  622.4000      67.677    0.964360    1.000218    0.999388    0.882002    0.840024
  623.0000      67.262    0.965306    0.979688    0.999288    0.883263    0.849030
  623.6000      67.528    0.966234    0.990425    0.999182    0.884524    0.850569
  624.2000      67.379    0.967144    1.033277    0.999070    0.885785    0.878622
  624.8000      66.953    0.968035    0.979707    0.998953    0.887044    0.855231
  625.4000      67.351    0.968907    0.972854    0.998831    0.888303    0.840030
  626.0000      67.074    0.969758    1.011008    0.998704    0.889561    0.841800
  626.6000      67.630    0.970589    0.989956    0.998572    0.890816    0.840234
  627.2000      67.400    0.971399    0.993389    0.998436    0.892070    0.813195
  627.8000      67.503    0.972187    1.008724    0.998297    0.893321    0.828074
  628.4000      67.314    0.972953    0.990947    0.998153    0.894569    0.837725
  629.0000      67.803    0.973697    0.962019    0.998005    0.895815    0.796250
  629.6000      67.850    0.974417    0.943682    0.997855    0.897057    0.837245
  630.2000      67.786    0.975113    0.949950    0.997701    0.898296    0.865686
  630.8000      67.563    0.975786    1.006389    0.997544    0.899531    0.849342
  631.4000      67.398    0.976433    1.007794    0.997384    0.900762    0.851917
  632.0000      67.564    0.977056    0.993093    0.997222    0.901989    0.852014
  632.6000      67.399    0.977653    0.988079    0.997057    0.903211    0.861564
  633.2000      67.173    0.978224    0.990062    0.996890    0.904429    0.856761
  633.8000      67.263    0.978769    0.949837    0.996721    0.905642    0.858753
  634.4000      67.225    0.979287    0.950193    0.996550    0.906850    0.869600
  635.0000      67.066    0.979778    0.974502    0.996377    0.908053    0.859398
  635.6000      66.987    0.980241    0.983249    0.996202    0.909250    0.819726
  636.2000      66.886    0.980677    1.014135    0.996026    0.910443    0.857580
  636.8000      66.334    0.981083    0.986496    0.995848    0.911629    0.836977
  637.4000      66.161    0.981462    1.008315    0.995668    0.912810    0.851533
  638.0000      66.491    0.981811    1.012149    0.995488    0.913985    0.859513
  638.6000      66.128    0.982130    1.000358    0.995306    0.915155    0.870987
  639.2000      65.717    0.982420    1.033938    0.995123    0.916318    0.845276
  639.8000      65.504    0.982679    1.097546    0.994939    0.917475    0.838519
  640.4000      65.490    0.982907    1.099178    0.994754    0.918626    0.865637
  641.0000      65.871    0.983105    1.062949    0.994569    0.919771    0.888495
  641.6000      65.579    0.983271    1.013164    0.994382    0.920909    0.853669
  642.2000      65.602    0.983406    0.990404    0.994195    0.922041    0.861435
  642.8000      65.368    0.983507    1.003591    0.994007    0.923166    0.836707
  643.4000      65.642    0.983575    0.950037    0.993818    0.924285    0.866649
  644.0000      65.879    0.983612    0.919200    0.993629    0.925398    0.840404
  644.6000      65.750    0.983613    0.982729    0.993439    0.926504    0.852874
  645.2000      65.649    0.983581    1.007659    0.993248    0.927603    0.842910
  645.8000      65.048    0.983514    0.985262    0.993057    0.928696    0.885422
  646.4000      64.901    0.983411    1.028590    0.992866    0.929782    0.866218
  647.0000      64.984    0.983273    0.987421    0.992674    0.930861    0.846386
  647.6000      65.047    0.983099    0.943625    0.992482    0.931934    0.875054
  648.2000      64.378    0.982887    0.900187    0.992290    0.933000    0.865489
  648.8000      64.553    0.982638    0.888863    0.992097    0.934059    0.871196
  649.4000      63.710    0.982352    0.945724    0.991904    0.935112    0.877417
  650.0000      63.988    0.982026    0.964387    0.991710    0.936158    0.875290
